unique_id,timepoint,domain,gender,age,block_order,block_type,trial_type,rt,accuracy,mean_rt
Non-words 3,baseline,Non-words,Female,17,con,con,tt3,1629,1,1124
Non-words 3,baseline,Non-words,Female,17,con,con,tt2,973,1,1124
Non-words 3,baseline,Non-words,Female,17,con,con,tt1,605,1,1124
Non-words 3,baseline,Non-words,Female,17,con,con,tt2,1015,1,1124
Non-words 3,baseline,Non-words,Female,17,con,con,tt4,1728,1,1124
Non-words 3,baseline,Non-words,Female,17,con,con,tt2,1554,1,1124
Non-words 3,baseline,Non-words,Female,17,con,con,tt1,798,1,1124
Non-words 3,baseline,Non-words,Female,17,con,con,tt3,1291,0,1124
Non-words 3,baseline,Non-words,Female,17,con,con,tt1,798,1,1124
Non-words 3,baseline,Non-words,Female,17,con,con,tt4,923,1,1124
Non-words 3,baseline,Non-words,Female,17,con,con,tt3,1273,1,1124
Non-words 3,baseline,Non-words,Female,17,con,con,tt4,980,1,1124
Non-words 3,baseline,Non-words,Female,17,con,con,tt3,1647,1,1124
Non-words 3,baseline,Non-words,Female,17,con,con,tt4,1087,0,1124
Non-words 3,baseline,Non-words,Female,17,con,con,tt2,1114,1,1124
Non-words 3,baseline,Non-words,Female,17,con,con,tt1,536,1,1124
Non-words 3,baseline,Non-words,Female,17,con,con,tt4,1128,1,1124
Non-words 3,baseline,Non-words,Female,17,con,con,tt1,1061,1,1124
Non-words 3,baseline,Non-words,Female,17,con,con,tt3,1039,1,1124
Non-words 3,baseline,Non-words,Female,17,con,con,tt2,1088,1,1124
Non-words 3,baseline,Non-words,Female,17,con,con,tt3,1244,0,1124
Non-words 3,baseline,Non-words,Female,17,con,con,tt4,1046,1,1124
Non-words 3,baseline,Non-words,Female,17,con,con,tt1,1079,1,1124
Non-words 3,baseline,Non-words,Female,17,con,con,tt2,932,1,1124
Non-words 3,baseline,Non-words,Female,17,con,incon,tt1,855,1,1124
Non-words 3,baseline,Non-words,Female,17,con,incon,tt4,2099,1,1124
Non-words 3,baseline,Non-words,Female,17,con,incon,tt3,798,1,1124
Non-words 3,baseline,Non-words,Female,17,con,incon,tt4,910,1,1124
Non-words 3,baseline,Non-words,Female,17,con,incon,tt2,919,1,1124
Non-words 3,baseline,Non-words,Female,17,con,incon,tt4,963,1,1124
Non-words 3,baseline,Non-words,Female,17,con,incon,tt2,835,1,1124
Non-words 3,baseline,Non-words,Female,17,con,incon,tt3,1463,0,1124
Non-words 3,baseline,Non-words,Female,17,con,incon,tt1,1596,1,1124
Non-words 3,baseline,Non-words,Female,17,con,incon,tt4,1015,1,1124
Non-words 3,baseline,Non-words,Female,17,con,incon,tt2,1991,1,1124
Non-words 3,baseline,Non-words,Female,17,con,incon,tt3,928,1,1124
Non-words 3,baseline,Non-words,Female,17,con,incon,tt4,725,1,1124
Non-words 3,baseline,Non-words,Female,17,con,incon,tt1,889,1,1124
Non-words 3,baseline,Non-words,Female,17,con,incon,tt3,1573,0,1124
Non-words 3,baseline,Non-words,Female,17,con,incon,tt1,1663,0,1124
Non-words 3,baseline,Non-words,Female,17,con,incon,tt2,761,1,1124
Non-words 3,baseline,Non-words,Female,17,con,incon,tt1,856,1,1124
Non-words 3,baseline,Non-words,Female,17,con,incon,tt2,743,1,1124
Non-words 3,baseline,Non-words,Female,17,con,incon,tt3,1189,1,1124
Non-words 3,baseline,Non-words,Female,17,con,incon,tt1,1240,0,1124
Non-words 3,baseline,Non-words,Female,17,con,incon,tt3,1447,1,1124
Non-words 3,baseline,Non-words,Female,17,con,incon,tt4,824,1,1124
Non-words 3,baseline,Non-words,Female,17,con,incon,tt2,959,1,1124
Non-words 3,baseline,Non-words,Female,17,con,con,tt4,1709,1,1124
Non-words 3,baseline,Non-words,Female,17,con,con,tt1,707,1,1124
Non-words 3,baseline,Non-words,Female,17,con,con,tt3,928,1,1124
Non-words 3,baseline,Non-words,Female,17,con,con,tt2,907,1,1124
Non-words 3,baseline,Non-words,Female,17,con,con,tt1,826,1,1124
Non-words 3,baseline,Non-words,Female,17,con,con,tt3,1397,1,1124
Non-words 3,baseline,Non-words,Female,17,con,con,tt4,724,1,1124
Non-words 3,baseline,Non-words,Female,17,con,con,tt1,926,1,1124
Non-words 3,baseline,Non-words,Female,17,con,con,tt2,862,1,1124
Non-words 3,baseline,Non-words,Female,17,con,con,tt4,1077,1,1124
Non-words 3,baseline,Non-words,Female,17,con,con,tt2,1269,1,1124
Non-words 3,baseline,Non-words,Female,17,con,con,tt1,1003,1,1124
Non-words 3,baseline,Non-words,Female,17,con,con,tt3,1334,1,1124
Non-words 3,baseline,Non-words,Female,17,con,con,tt2,1502,0,1124
Non-words 3,baseline,Non-words,Female,17,con,con,tt3,1030,1,1124
Non-words 3,baseline,Non-words,Female,17,con,con,tt4,1198,1,1124
Non-words 3,baseline,Non-words,Female,17,con,con,tt2,2037,1,1124
Non-words 3,baseline,Non-words,Female,17,con,con,tt4,906,1,1124
Non-words 3,baseline,Non-words,Female,17,con,con,tt1,732,1,1124
Non-words 3,baseline,Non-words,Female,17,con,con,tt3,1261,1,1124
Non-words 3,baseline,Non-words,Female,17,con,con,tt1,1355,1,1124
Non-words 3,baseline,Non-words,Female,17,con,con,tt3,886,1,1124
Non-words 3,baseline,Non-words,Female,17,con,con,tt4,906,1,1124
Non-words 3,baseline,Non-words,Female,17,con,con,tt2,1642,1,1124
Non-words 3,baseline,Non-words,Female,17,con,incon,tt4,1619,1,1124
Non-words 3,baseline,Non-words,Female,17,con,incon,tt3,672,1,1124
Non-words 3,baseline,Non-words,Female,17,con,incon,tt1,1082,1,1124
Non-words 3,baseline,Non-words,Female,17,con,incon,tt3,1008,1,1124
Non-words 3,baseline,Non-words,Female,17,con,incon,tt4,1031,1,1124
Non-words 3,baseline,Non-words,Female,17,con,incon,tt1,969,1,1124
Non-words 3,baseline,Non-words,Female,17,con,incon,tt2,802,1,1124
Non-words 3,baseline,Non-words,Female,17,con,incon,tt4,1036,1,1124
Non-words 3,baseline,Non-words,Female,17,con,incon,tt2,1769,1,1124
Non-words 3,baseline,Non-words,Female,17,con,incon,tt1,857,1,1124
Non-words 3,baseline,Non-words,Female,17,con,incon,tt3,887,1,1124
Non-words 3,baseline,Non-words,Female,17,con,incon,tt2,1170,1,1124
Non-words 3,baseline,Non-words,Female,17,con,incon,tt1,761,1,1124
Non-words 3,baseline,Non-words,Female,17,con,incon,tt3,931,1,1124
Non-words 3,baseline,Non-words,Female,17,con,incon,tt4,1017,1,1124
Non-words 3,baseline,Non-words,Female,17,con,incon,tt2,1100,1,1124
Non-words 3,baseline,Non-words,Female,17,con,incon,tt4,887,1,1124
Non-words 3,baseline,Non-words,Female,17,con,incon,tt3,901,1,1124
Non-words 3,baseline,Non-words,Female,17,con,incon,tt2,1521,0,1124
Non-words 3,baseline,Non-words,Female,17,con,incon,tt1,2401,0,1124
Non-words 3,baseline,Non-words,Female,17,con,incon,tt2,1037,1,1124
Non-words 3,baseline,Non-words,Female,17,con,incon,tt1,777,1,1124
Non-words 3,baseline,Non-words,Female,17,con,incon,tt4,1702,0,1124
Non-words 3,baseline,Non-words,Female,17,con,incon,tt3,957,1,1124
Non-words 3,baseline,Non-words,Female,17,con,con,tt3,2139,1,1124
Non-words 3,baseline,Non-words,Female,17,con,con,tt1,897,1,1124
Non-words 3,baseline,Non-words,Female,17,con,con,tt4,1649,1,1124
Non-words 3,baseline,Non-words,Female,17,con,con,tt2,840,1,1124
Non-words 3,baseline,Non-words,Female,17,con,con,tt3,1208,1,1124
Non-words 3,baseline,Non-words,Female,17,con,con,tt2,1198,1,1124
Non-words 3,baseline,Non-words,Female,17,con,con,tt4,1477,0,1124
Non-words 3,baseline,Non-words,Female,17,con,con,tt1,905,1,1124
Non-words 3,baseline,Non-words,Female,17,con,con,tt2,1808,1,1124
Non-words 3,baseline,Non-words,Female,17,con,con,tt1,765,1,1124
Non-words 3,baseline,Non-words,Female,17,con,con,tt4,729,1,1124
Non-words 3,baseline,Non-words,Female,17,con,con,tt1,963,1,1124
Non-words 3,baseline,Non-words,Female,17,con,con,tt3,918,1,1124
Non-words 3,baseline,Non-words,Female,17,con,con,tt1,772,1,1124
Non-words 3,baseline,Non-words,Female,17,con,con,tt2,1167,1,1124
Non-words 3,baseline,Non-words,Female,17,con,con,tt4,1211,1,1124
Non-words 3,baseline,Non-words,Female,17,con,con,tt3,1371,0,1124
Non-words 3,baseline,Non-words,Female,17,con,con,tt4,1095,0,1124
Non-words 3,baseline,Non-words,Female,17,con,con,tt3,875,1,1124
Non-words 3,baseline,Non-words,Female,17,con,con,tt2,1210,1,1124
Non-words 3,baseline,Non-words,Female,17,con,con,tt4,1376,1,1124
Non-words 3,baseline,Non-words,Female,17,con,con,tt3,1269,1,1124
Non-words 3,baseline,Non-words,Female,17,con,con,tt2,1369,1,1124
Non-words 3,baseline,Non-words,Female,17,con,con,tt1,614,1,1124
Non-words 3,baseline,Non-words,Female,17,con,incon,tt3,1958,1,1124
Non-words 3,baseline,Non-words,Female,17,con,incon,tt4,752,1,1124
Non-words 3,baseline,Non-words,Female,17,con,incon,tt2,1110,1,1124
Non-words 3,baseline,Non-words,Female,17,con,incon,tt1,815,1,1124
Non-words 3,baseline,Non-words,Female,17,con,incon,tt3,582,1,1124
Non-words 3,baseline,Non-words,Female,17,con,incon,tt1,1531,1,1124
Non-words 3,baseline,Non-words,Female,17,con,incon,tt3,1003,1,1124
Non-words 3,baseline,Non-words,Female,17,con,incon,tt1,939,1,1124
Non-words 3,baseline,Non-words,Female,17,con,incon,tt4,1025,1,1124
Non-words 3,baseline,Non-words,Female,17,con,incon,tt2,1353,1,1124
Non-words 3,baseline,Non-words,Female,17,con,incon,tt4,1245,1,1124
Non-words 3,baseline,Non-words,Female,17,con,incon,tt1,1037,1,1124
Non-words 3,baseline,Non-words,Female,17,con,incon,tt2,724,1,1124
Non-words 3,baseline,Non-words,Female,17,con,incon,tt1,1070,1,1124
Non-words 3,baseline,Non-words,Female,17,con,incon,tt2,1025,1,1124
Non-words 3,baseline,Non-words,Female,17,con,incon,tt3,1189,1,1124
Non-words 3,baseline,Non-words,Female,17,con,incon,tt4,750,1,1124
Non-words 3,baseline,Non-words,Female,17,con,incon,tt2,1624,1,1124
Non-words 3,baseline,Non-words,Female,17,con,incon,tt4,1215,1,1124
Non-words 3,baseline,Non-words,Female,17,con,incon,tt3,920,1,1124
Non-words 3,baseline,Non-words,Female,17,con,incon,tt4,710,1,1124
Non-words 3,baseline,Non-words,Female,17,con,incon,tt2,1200,1,1124
Non-words 3,baseline,Non-words,Female,17,con,incon,tt1,1113,1,1124
Non-words 3,baseline,Non-words,Female,17,con,incon,tt3,1330,1,1124
Non-words 7,baseline,Non-words,Female,46,con,con,tt2,2637,1,1744
Non-words 7,baseline,Non-words,Female,46,con,con,tt3,3370,0,1744
Non-words 7,baseline,Non-words,Female,46,con,con,tt1,2125,1,1744
Non-words 7,baseline,Non-words,Female,46,con,con,tt2,1199,1,1744
Non-words 7,baseline,Non-words,Female,46,con,con,tt1,1045,1,1744
Non-words 7,baseline,Non-words,Female,46,con,con,tt3,1647,1,1744
Non-words 7,baseline,Non-words,Female,46,con,con,tt4,1959,1,1744
Non-words 7,baseline,Non-words,Female,46,con,con,tt2,1697,1,1744
Non-words 7,baseline,Non-words,Female,46,con,con,tt4,2500,1,1744
Non-words 7,baseline,Non-words,Female,46,con,con,tt2,3047,1,1744
Non-words 7,baseline,Non-words,Female,46,con,con,tt3,1728,1,1744
Non-words 7,baseline,Non-words,Female,46,con,con,tt1,1108,1,1744
Non-words 7,baseline,Non-words,Female,46,con,con,tt3,4225,1,1744
Non-words 7,baseline,Non-words,Female,46,con,con,tt1,1006,1,1744
Non-words 7,baseline,Non-words,Female,46,con,con,tt4,1197,1,1744
Non-words 7,baseline,Non-words,Female,46,con,con,tt1,1381,1,1744
Non-words 7,baseline,Non-words,Female,46,con,con,tt4,1447,1,1744
Non-words 7,baseline,Non-words,Female,46,con,con,tt3,1603,1,1744
Non-words 7,baseline,Non-words,Female,46,con,con,tt2,1243,1,1744
Non-words 7,baseline,Non-words,Female,46,con,con,tt4,1405,1,1744
Non-words 7,baseline,Non-words,Female,46,con,con,tt3,2325,1,1744
Non-words 7,baseline,Non-words,Female,46,con,con,tt2,2886,0,1744
Non-words 7,baseline,Non-words,Female,46,con,con,tt4,1621,1,1744
Non-words 7,baseline,Non-words,Female,46,con,con,tt1,2009,1,1744
Non-words 7,baseline,Non-words,Female,46,con,incon,tt1,1916,1,1744
Non-words 7,baseline,Non-words,Female,46,con,incon,tt2,1561,1,1744
Non-words 7,baseline,Non-words,Female,46,con,incon,tt1,1051,1,1744
Non-words 7,baseline,Non-words,Female,46,con,incon,tt3,1302,1,1744
Non-words 7,baseline,Non-words,Female,46,con,incon,tt4,2096,1,1744
Non-words 7,baseline,Non-words,Female,46,con,incon,tt1,1858,1,1744
Non-words 7,baseline,Non-words,Female,46,con,incon,tt2,1127,1,1744
Non-words 7,baseline,Non-words,Female,46,con,incon,tt1,1636,1,1744
Non-words 7,baseline,Non-words,Female,46,con,incon,tt2,1665,1,1744
Non-words 7,baseline,Non-words,Female,46,con,incon,tt4,1721,1,1744
Non-words 7,baseline,Non-words,Female,46,con,incon,tt3,1018,1,1744
Non-words 7,baseline,Non-words,Female,46,con,incon,tt1,1508,1,1744
Non-words 7,baseline,Non-words,Female,46,con,incon,tt4,3007,1,1744
Non-words 7,baseline,Non-words,Female,46,con,incon,tt2,2140,0,1744
Non-words 7,baseline,Non-words,Female,46,con,incon,tt3,1705,1,1744
Non-words 7,baseline,Non-words,Female,46,con,incon,tt2,3078,1,1744
Non-words 7,baseline,Non-words,Female,46,con,incon,tt3,1378,1,1744
Non-words 7,baseline,Non-words,Female,46,con,incon,tt2,1172,1,1744
Non-words 7,baseline,Non-words,Female,46,con,incon,tt4,1510,1,1744
Non-words 7,baseline,Non-words,Female,46,con,incon,tt1,1217,1,1744
Non-words 7,baseline,Non-words,Female,46,con,incon,tt3,1508,1,1744
Non-words 7,baseline,Non-words,Female,46,con,incon,tt4,965,1,1744
Non-words 7,baseline,Non-words,Female,46,con,incon,tt3,2403,1,1744
Non-words 7,baseline,Non-words,Female,46,con,incon,tt4,1060,1,1744
Non-words 7,baseline,Non-words,Female,46,con,con,tt3,1896,1,1744
Non-words 7,baseline,Non-words,Female,46,con,con,tt1,1076,1,1744
Non-words 7,baseline,Non-words,Female,46,con,con,tt4,3711,1,1744
Non-words 7,baseline,Non-words,Female,46,con,con,tt1,4635,1,1744
Non-words 7,baseline,Non-words,Female,46,con,con,tt2,1834,1,1744
Non-words 7,baseline,Non-words,Female,46,con,con,tt3,1801,1,1744
Non-words 7,baseline,Non-words,Female,46,con,con,tt1,1602,1,1744
Non-words 7,baseline,Non-words,Female,46,con,con,tt2,1595,1,1744
Non-words 7,baseline,Non-words,Female,46,con,con,tt3,1514,1,1744
Non-words 7,baseline,Non-words,Female,46,con,con,tt1,1378,1,1744
Non-words 7,baseline,Non-words,Female,46,con,con,tt4,1660,1,1744
Non-words 7,baseline,Non-words,Female,46,con,con,tt2,2156,1,1744
Non-words 7,baseline,Non-words,Female,46,con,con,tt4,1819,1,1744
Non-words 7,baseline,Non-words,Female,46,con,con,tt1,1288,1,1744
Non-words 7,baseline,Non-words,Female,46,con,con,tt3,1455,0,1744
Non-words 7,baseline,Non-words,Female,46,con,con,tt2,2294,1,1744
Non-words 7,baseline,Non-words,Female,46,con,con,tt3,2019,1,1744
Non-words 7,baseline,Non-words,Female,46,con,con,tt1,1167,1,1744
Non-words 7,baseline,Non-words,Female,46,con,con,tt4,2607,1,1744
Non-words 7,baseline,Non-words,Female,46,con,con,tt2,1518,1,1744
Non-words 7,baseline,Non-words,Female,46,con,con,tt4,1197,1,1744
Non-words 7,baseline,Non-words,Female,46,con,con,tt3,1415,1,1744
Non-words 7,baseline,Non-words,Female,46,con,con,tt4,1105,1,1744
Non-words 7,baseline,Non-words,Female,46,con,con,tt2,2358,1,1744
Non-words 7,baseline,Non-words,Female,46,con,incon,tt3,1651,1,1744
Non-words 7,baseline,Non-words,Female,46,con,incon,tt4,1304,1,1744
Non-words 7,baseline,Non-words,Female,46,con,incon,tt2,1393,1,1744
Non-words 7,baseline,Non-words,Female,46,con,incon,tt3,1675,1,1744
Non-words 7,baseline,Non-words,Female,46,con,incon,tt1,1737,1,1744
Non-words 7,baseline,Non-words,Female,46,con,incon,tt2,2004,1,1744
Non-words 7,baseline,Non-words,Female,46,con,incon,tt4,1855,1,1744
Non-words 7,baseline,Non-words,Female,46,con,incon,tt1,2810,1,1744
Non-words 7,baseline,Non-words,Female,46,con,incon,tt3,1180,1,1744
Non-words 7,baseline,Non-words,Female,46,con,incon,tt4,2334,1,1744
Non-words 7,baseline,Non-words,Female,46,con,incon,tt3,1595,1,1744
Non-words 7,baseline,Non-words,Female,46,con,incon,tt1,1278,1,1744
Non-words 7,baseline,Non-words,Female,46,con,incon,tt3,2633,1,1744
Non-words 7,baseline,Non-words,Female,46,con,incon,tt4,1134,1,1744
Non-words 7,baseline,Non-words,Female,46,con,incon,tt2,1400,1,1744
Non-words 7,baseline,Non-words,Female,46,con,incon,tt1,1721,1,1744
Non-words 7,baseline,Non-words,Female,46,con,incon,tt2,2757,1,1744
Non-words 7,baseline,Non-words,Female,46,con,incon,tt3,1350,1,1744
Non-words 7,baseline,Non-words,Female,46,con,incon,tt1,1339,1,1744
Non-words 7,baseline,Non-words,Female,46,con,incon,tt4,1617,1,1744
Non-words 7,baseline,Non-words,Female,46,con,incon,tt2,1509,1,1744
Non-words 7,baseline,Non-words,Female,46,con,incon,tt4,2170,1,1744
Non-words 7,baseline,Non-words,Female,46,con,incon,tt2,2966,1,1744
Non-words 7,baseline,Non-words,Female,46,con,incon,tt1,1183,1,1744
Non-words 7,baseline,Non-words,Female,46,con,con,tt3,2294,1,1744
Non-words 7,baseline,Non-words,Female,46,con,con,tt4,1525,1,1744
Non-words 7,baseline,Non-words,Female,46,con,con,tt1,1733,1,1744
Non-words 7,baseline,Non-words,Female,46,con,con,tt2,1398,1,1744
Non-words 7,baseline,Non-words,Female,46,con,con,tt3,1235,1,1744
Non-words 7,baseline,Non-words,Female,46,con,con,tt4,1328,1,1744
Non-words 7,baseline,Non-words,Female,46,con,con,tt1,1562,1,1744
Non-words 7,baseline,Non-words,Female,46,con,con,tt4,2691,1,1744
Non-words 7,baseline,Non-words,Female,46,con,con,tt3,1455,1,1744
Non-words 7,baseline,Non-words,Female,46,con,con,tt1,1753,1,1744
Non-words 7,baseline,Non-words,Female,46,con,con,tt2,1438,1,1744
Non-words 7,baseline,Non-words,Female,46,con,con,tt4,2539,1,1744
Non-words 7,baseline,Non-words,Female,46,con,con,tt3,1323,1,1744
Non-words 7,baseline,Non-words,Female,46,con,con,tt1,1124,1,1744
Non-words 7,baseline,Non-words,Female,46,con,con,tt3,1316,1,1744
Non-words 7,baseline,Non-words,Female,46,con,con,tt4,1784,1,1744
Non-words 7,baseline,Non-words,Female,46,con,con,tt2,1998,1,1744
Non-words 7,baseline,Non-words,Female,46,con,con,tt3,1500,1,1744
Non-words 7,baseline,Non-words,Female,46,con,con,tt2,1857,1,1744
Non-words 7,baseline,Non-words,Female,46,con,con,tt4,1936,1,1744
Non-words 7,baseline,Non-words,Female,46,con,con,tt2,1185,1,1744
Non-words 7,baseline,Non-words,Female,46,con,con,tt1,1360,1,1744
Non-words 7,baseline,Non-words,Female,46,con,con,tt2,1629,1,1744
Non-words 7,baseline,Non-words,Female,46,con,con,tt1,993,1,1744
Non-words 7,baseline,Non-words,Female,46,con,incon,tt1,2892,1,1744
Non-words 7,baseline,Non-words,Female,46,con,incon,tt3,1153,1,1744
Non-words 7,baseline,Non-words,Female,46,con,incon,tt4,2732,1,1744
Non-words 7,baseline,Non-words,Female,46,con,incon,tt2,1636,1,1744
Non-words 7,baseline,Non-words,Female,46,con,incon,tt3,1993,1,1744
Non-words 7,baseline,Non-words,Female,46,con,incon,tt1,1295,1,1744
Non-words 7,baseline,Non-words,Female,46,con,incon,tt3,1381,1,1744
Non-words 7,baseline,Non-words,Female,46,con,incon,tt2,1335,1,1744
Non-words 7,baseline,Non-words,Female,46,con,incon,tt1,1334,1,1744
Non-words 7,baseline,Non-words,Female,46,con,incon,tt2,1529,1,1744
Non-words 7,baseline,Non-words,Female,46,con,incon,tt4,1268,1,1744
Non-words 7,baseline,Non-words,Female,46,con,incon,tt3,1007,1,1744
Non-words 7,baseline,Non-words,Female,46,con,incon,tt1,1300,1,1744
Non-words 7,baseline,Non-words,Female,46,con,incon,tt3,1230,1,1744
Non-words 7,baseline,Non-words,Female,46,con,incon,tt4,1192,1,1744
Non-words 7,baseline,Non-words,Female,46,con,incon,tt1,1590,1,1744
Non-words 7,baseline,Non-words,Female,46,con,incon,tt3,1270,1,1744
Non-words 7,baseline,Non-words,Female,46,con,incon,tt1,1527,1,1744
Non-words 7,baseline,Non-words,Female,46,con,incon,tt4,1364,1,1744
Non-words 7,baseline,Non-words,Female,46,con,incon,tt2,1632,1,1744
Non-words 7,baseline,Non-words,Female,46,con,incon,tt4,1693,1,1744
Non-words 7,baseline,Non-words,Female,46,con,incon,tt2,1421,1,1744
Non-words 7,baseline,Non-words,Female,46,con,incon,tt4,2996,1,1744
Non-words 7,baseline,Non-words,Female,46,con,incon,tt2,1653,1,1744
Non-words 9,baseline,Non-words,Female,21,con,con,tt2,948,1,1232
Non-words 9,baseline,Non-words,Female,21,con,con,tt4,1508,1,1232
Non-words 9,baseline,Non-words,Female,21,con,con,tt1,1483,1,1232
Non-words 9,baseline,Non-words,Female,21,con,con,tt3,1130,1,1232
Non-words 9,baseline,Non-words,Female,21,con,con,tt2,1325,1,1232
Non-words 9,baseline,Non-words,Female,21,con,con,tt1,996,1,1232
Non-words 9,baseline,Non-words,Female,21,con,con,tt4,1005,1,1232
Non-words 9,baseline,Non-words,Female,21,con,con,tt3,1342,1,1232
Non-words 9,baseline,Non-words,Female,21,con,con,tt4,764,1,1232
Non-words 9,baseline,Non-words,Female,21,con,con,tt1,1128,0,1232
Non-words 9,baseline,Non-words,Female,21,con,con,tt3,1463,1,1232
Non-words 9,baseline,Non-words,Female,21,con,con,tt1,838,1,1232
Non-words 9,baseline,Non-words,Female,21,con,con,tt2,859,1,1232
Non-words 9,baseline,Non-words,Female,21,con,con,tt4,1241,1,1232
Non-words 9,baseline,Non-words,Female,21,con,con,tt1,1550,1,1232
Non-words 9,baseline,Non-words,Female,21,con,con,tt2,1157,1,1232
Non-words 9,baseline,Non-words,Female,21,con,con,tt1,663,1,1232
Non-words 9,baseline,Non-words,Female,21,con,con,tt3,932,1,1232
Non-words 9,baseline,Non-words,Female,21,con,con,tt4,728,1,1232
Non-words 9,baseline,Non-words,Female,21,con,con,tt3,768,1,1232
Non-words 9,baseline,Non-words,Female,21,con,con,tt2,1221,0,1232
Non-words 9,baseline,Non-words,Female,21,con,con,tt4,1000,1,1232
Non-words 9,baseline,Non-words,Female,21,con,con,tt2,1179,1,1232
Non-words 9,baseline,Non-words,Female,21,con,con,tt3,926,1,1232
Non-words 9,baseline,Non-words,Female,21,con,incon,tt3,802,1,1232
Non-words 9,baseline,Non-words,Female,21,con,incon,tt2,966,1,1232
Non-words 9,baseline,Non-words,Female,21,con,incon,tt1,788,1,1232
Non-words 9,baseline,Non-words,Female,21,con,incon,tt4,1008,1,1232
Non-words 9,baseline,Non-words,Female,21,con,incon,tt3,858,1,1232
Non-words 9,baseline,Non-words,Female,21,con,incon,tt1,1598,1,1232
Non-words 9,baseline,Non-words,Female,21,con,incon,tt4,3636,0,1232
Non-words 9,baseline,Non-words,Female,21,con,incon,tt3,2354,1,1232
Non-words 9,baseline,Non-words,Female,21,con,incon,tt2,2451,0,1232
Non-words 9,baseline,Non-words,Female,21,con,incon,tt3,1120,1,1232
Non-words 9,baseline,Non-words,Female,21,con,incon,tt4,1053,1,1232
Non-words 9,baseline,Non-words,Female,21,con,incon,tt1,1933,0,1232
Non-words 9,baseline,Non-words,Female,21,con,incon,tt2,3726,0,1232
Non-words 9,baseline,Non-words,Female,21,con,incon,tt3,1558,1,1232
Non-words 9,baseline,Non-words,Female,21,con,incon,tt2,10225,0,1232
Non-words 9,baseline,Non-words,Female,21,con,incon,tt1,1502,0,1232
Non-words 9,baseline,Non-words,Female,21,con,incon,tt4,1726,1,1232
Non-words 9,baseline,Non-words,Female,21,con,incon,tt2,2165,1,1232
Non-words 9,baseline,Non-words,Female,21,con,incon,tt1,960,1,1232
Non-words 9,baseline,Non-words,Female,21,con,incon,tt2,772,1,1232
Non-words 9,baseline,Non-words,Female,21,con,incon,tt4,940,1,1232
Non-words 9,baseline,Non-words,Female,21,con,incon,tt1,841,1,1232
Non-words 9,baseline,Non-words,Female,21,con,incon,tt4,1056,1,1232
Non-words 9,baseline,Non-words,Female,21,con,incon,tt3,604,1,1232
Non-words 9,baseline,Non-words,Female,21,con,con,tt2,1141,1,1232
Non-words 9,baseline,Non-words,Female,21,con,con,tt3,1418,1,1232
Non-words 9,baseline,Non-words,Female,21,con,con,tt4,880,1,1232
Non-words 9,baseline,Non-words,Female,21,con,con,tt1,1609,1,1232
Non-words 9,baseline,Non-words,Female,21,con,con,tt2,704,1,1232
Non-words 9,baseline,Non-words,Female,21,con,con,tt3,918,1,1232
Non-words 9,baseline,Non-words,Female,21,con,con,tt2,919,1,1232
Non-words 9,baseline,Non-words,Female,21,con,con,tt4,869,1,1232
Non-words 9,baseline,Non-words,Female,21,con,con,tt2,1196,1,1232
Non-words 9,baseline,Non-words,Female,21,con,con,tt4,994,1,1232
Non-words 9,baseline,Non-words,Female,21,con,con,tt1,1211,1,1232
Non-words 9,baseline,Non-words,Female,21,con,con,tt4,1673,1,1232
Non-words 9,baseline,Non-words,Female,21,con,con,tt3,859,1,1232
Non-words 9,baseline,Non-words,Female,21,con,con,tt1,910,1,1232
Non-words 9,baseline,Non-words,Female,21,con,con,tt3,715,1,1232
Non-words 9,baseline,Non-words,Female,21,con,con,tt1,997,1,1232
Non-words 9,baseline,Non-words,Female,21,con,con,tt3,887,1,1232
Non-words 9,baseline,Non-words,Female,21,con,con,tt2,853,1,1232
Non-words 9,baseline,Non-words,Female,21,con,con,tt4,1118,1,1232
Non-words 9,baseline,Non-words,Female,21,con,con,tt2,1000,1,1232
Non-words 9,baseline,Non-words,Female,21,con,con,tt1,814,1,1232
Non-words 9,baseline,Non-words,Female,21,con,con,tt4,1336,0,1232
Non-words 9,baseline,Non-words,Female,21,con,con,tt1,1005,1,1232
Non-words 9,baseline,Non-words,Female,21,con,con,tt3,903,1,1232
Non-words 9,baseline,Non-words,Female,21,con,incon,tt2,1251,1,1232
Non-words 9,baseline,Non-words,Female,21,con,incon,tt4,830,1,1232
Non-words 9,baseline,Non-words,Female,21,con,incon,tt1,830,1,1232
Non-words 9,baseline,Non-words,Female,21,con,incon,tt3,878,1,1232
Non-words 9,baseline,Non-words,Female,21,con,incon,tt1,866,1,1232
Non-words 9,baseline,Non-words,Female,21,con,incon,tt4,1668,0,1232
Non-words 9,baseline,Non-words,Female,21,con,incon,tt1,1014,1,1232
Non-words 9,baseline,Non-words,Female,21,con,incon,tt2,2823,0,1232
Non-words 9,baseline,Non-words,Female,21,con,incon,tt4,1862,1,1232
Non-words 9,baseline,Non-words,Female,21,con,incon,tt1,803,1,1232
Non-words 9,baseline,Non-words,Female,21,con,incon,tt2,890,1,1232
Non-words 9,baseline,Non-words,Female,21,con,incon,tt4,1042,1,1232
Non-words 9,baseline,Non-words,Female,21,con,incon,tt3,946,1,1232
Non-words 9,baseline,Non-words,Female,21,con,incon,tt2,1572,0,1232
Non-words 9,baseline,Non-words,Female,21,con,incon,tt3,1498,0,1232
Non-words 9,baseline,Non-words,Female,21,con,incon,tt1,1388,1,1232
Non-words 9,baseline,Non-words,Female,21,con,incon,tt3,1379,1,1232
Non-words 9,baseline,Non-words,Female,21,con,incon,tt1,1404,1,1232
Non-words 9,baseline,Non-words,Female,21,con,incon,tt2,1070,1,1232
Non-words 9,baseline,Non-words,Female,21,con,incon,tt3,2432,0,1232
Non-words 9,baseline,Non-words,Female,21,con,incon,tt4,844,1,1232
Non-words 9,baseline,Non-words,Female,21,con,incon,tt2,1166,1,1232
Non-words 9,baseline,Non-words,Female,21,con,incon,tt4,925,1,1232
Non-words 9,baseline,Non-words,Female,21,con,incon,tt3,1603,1,1232
Non-words 9,baseline,Non-words,Female,21,con,con,tt3,1552,0,1232
Non-words 9,baseline,Non-words,Female,21,con,con,tt4,891,1,1232
Non-words 9,baseline,Non-words,Female,21,con,con,tt3,1338,1,1232
Non-words 9,baseline,Non-words,Female,21,con,con,tt4,845,1,1232
Non-words 9,baseline,Non-words,Female,21,con,con,tt2,1551,1,1232
Non-words 9,baseline,Non-words,Female,21,con,con,tt1,637,1,1232
Non-words 9,baseline,Non-words,Female,21,con,con,tt2,857,1,1232
Non-words 9,baseline,Non-words,Female,21,con,con,tt1,1471,1,1232
Non-words 9,baseline,Non-words,Female,21,con,con,tt2,701,1,1232
Non-words 9,baseline,Non-words,Female,21,con,con,tt3,1083,1,1232
Non-words 9,baseline,Non-words,Female,21,con,con,tt4,722,1,1232
Non-words 9,baseline,Non-words,Female,21,con,con,tt1,1203,1,1232
Non-words 9,baseline,Non-words,Female,21,con,con,tt3,770,1,1232
Non-words 9,baseline,Non-words,Female,21,con,con,tt1,736,1,1232
Non-words 9,baseline,Non-words,Female,21,con,con,tt4,1152,1,1232
Non-words 9,baseline,Non-words,Female,21,con,con,tt2,779,1,1232
Non-words 9,baseline,Non-words,Female,21,con,con,tt1,680,1,1232
Non-words 9,baseline,Non-words,Female,21,con,con,tt2,1192,1,1232
Non-words 9,baseline,Non-words,Female,21,con,con,tt4,961,1,1232
Non-words 9,baseline,Non-words,Female,21,con,con,tt2,787,1,1232
Non-words 9,baseline,Non-words,Female,21,con,con,tt3,934,1,1232
Non-words 9,baseline,Non-words,Female,21,con,con,tt4,753,1,1232
Non-words 9,baseline,Non-words,Female,21,con,con,tt3,723,1,1232
Non-words 9,baseline,Non-words,Female,21,con,con,tt1,849,1,1232
Non-words 9,baseline,Non-words,Female,21,con,incon,tt4,1932,0,1232
Non-words 9,baseline,Non-words,Female,21,con,incon,tt1,1151,1,1232
Non-words 9,baseline,Non-words,Female,21,con,incon,tt3,824,1,1232
Non-words 9,baseline,Non-words,Female,21,con,incon,tt1,986,1,1232
Non-words 9,baseline,Non-words,Female,21,con,incon,tt3,891,1,1232
Non-words 9,baseline,Non-words,Female,21,con,incon,tt1,719,1,1232
Non-words 9,baseline,Non-words,Female,21,con,incon,tt2,1171,1,1232
Non-words 9,baseline,Non-words,Female,21,con,incon,tt3,857,1,1232
Non-words 9,baseline,Non-words,Female,21,con,incon,tt4,680,1,1232
Non-words 9,baseline,Non-words,Female,21,con,incon,tt2,1631,0,1232
Non-words 9,baseline,Non-words,Female,21,con,incon,tt4,2352,0,1232
Non-words 9,baseline,Non-words,Female,21,con,incon,tt3,985,1,1232
Non-words 9,baseline,Non-words,Female,21,con,incon,tt2,858,1,1232
Non-words 9,baseline,Non-words,Female,21,con,incon,tt4,1940,0,1232
Non-words 9,baseline,Non-words,Female,21,con,incon,tt1,1488,1,1232
Non-words 9,baseline,Non-words,Female,21,con,incon,tt2,841,1,1232
Non-words 9,baseline,Non-words,Female,21,con,incon,tt4,814,1,1232
Non-words 9,baseline,Non-words,Female,21,con,incon,tt2,1249,1,1232
Non-words 9,baseline,Non-words,Female,21,con,incon,tt4,731,1,1232
Non-words 9,baseline,Non-words,Female,21,con,incon,tt3,845,1,1232
Non-words 9,baseline,Non-words,Female,21,con,incon,tt1,1186,1,1232
Non-words 9,baseline,Non-words,Female,21,con,incon,tt3,732,1,1232
Non-words 9,baseline,Non-words,Female,21,con,incon,tt2,1661,0,1232
Non-words 9,baseline,Non-words,Female,21,con,incon,tt1,940,1,1232
Non-words 11,baseline,Non-words,Female,21,con,con,tt1,961,1,1671
Non-words 11,baseline,Non-words,Female,21,con,con,tt4,1463,1,1671
Non-words 11,baseline,Non-words,Female,21,con,con,tt2,871,1,1671
Non-words 11,baseline,Non-words,Female,21,con,con,tt3,953,1,1671
Non-words 11,baseline,Non-words,Female,21,con,con,tt4,1307,1,1671
Non-words 11,baseline,Non-words,Female,21,con,con,tt1,1167,1,1671
Non-words 11,baseline,Non-words,Female,21,con,con,tt3,3452,1,1671
Non-words 11,baseline,Non-words,Female,21,con,con,tt2,1603,1,1671
Non-words 11,baseline,Non-words,Female,21,con,con,tt4,1246,1,1671
Non-words 11,baseline,Non-words,Female,21,con,con,tt1,1661,1,1671
Non-words 11,baseline,Non-words,Female,21,con,con,tt2,1626,1,1671
Non-words 11,baseline,Non-words,Female,21,con,con,tt3,3592,1,1671
Non-words 11,baseline,Non-words,Female,21,con,con,tt2,1383,1,1671
Non-words 11,baseline,Non-words,Female,21,con,con,tt4,2756,1,1671
Non-words 11,baseline,Non-words,Female,21,con,con,tt1,1577,1,1671
Non-words 11,baseline,Non-words,Female,21,con,con,tt4,1230,1,1671
Non-words 11,baseline,Non-words,Female,21,con,con,tt1,751,1,1671
Non-words 11,baseline,Non-words,Female,21,con,con,tt3,6874,1,1671
Non-words 11,baseline,Non-words,Female,21,con,con,tt1,805,1,1671
Non-words 11,baseline,Non-words,Female,21,con,con,tt2,2115,1,1671
Non-words 11,baseline,Non-words,Female,21,con,con,tt4,1675,1,1671
Non-words 11,baseline,Non-words,Female,21,con,con,tt3,778,1,1671
Non-words 11,baseline,Non-words,Female,21,con,con,tt2,1378,1,1671
Non-words 11,baseline,Non-words,Female,21,con,con,tt3,1301,1,1671
Non-words 11,baseline,Non-words,Female,21,con,incon,tt3,2311,1,1671
Non-words 11,baseline,Non-words,Female,21,con,incon,tt2,1520,1,1671
Non-words 11,baseline,Non-words,Female,21,con,incon,tt4,1469,1,1671
Non-words 11,baseline,Non-words,Female,21,con,incon,tt3,7685,1,1671
Non-words 11,baseline,Non-words,Female,21,con,incon,tt4,970,1,1671
Non-words 11,baseline,Non-words,Female,21,con,incon,tt1,972,1,1671
Non-words 11,baseline,Non-words,Female,21,con,incon,tt3,2057,1,1671
Non-words 11,baseline,Non-words,Female,21,con,incon,tt2,1414,1,1671
Non-words 11,baseline,Non-words,Female,21,con,incon,tt4,1076,1,1671
Non-words 11,baseline,Non-words,Female,21,con,incon,tt1,1958,0,1671
Non-words 11,baseline,Non-words,Female,21,con,incon,tt2,976,1,1671
Non-words 11,baseline,Non-words,Female,21,con,incon,tt3,1707,1,1671
Non-words 11,baseline,Non-words,Female,21,con,incon,tt1,915,1,1671
Non-words 11,baseline,Non-words,Female,21,con,incon,tt2,1011,1,1671
Non-words 11,baseline,Non-words,Female,21,con,incon,tt4,1535,1,1671
Non-words 11,baseline,Non-words,Female,21,con,incon,tt1,1102,1,1671
Non-words 11,baseline,Non-words,Female,21,con,incon,tt3,2153,1,1671
Non-words 11,baseline,Non-words,Female,21,con,incon,tt4,878,1,1671
Non-words 11,baseline,Non-words,Female,21,con,incon,tt2,4470,1,1671
Non-words 11,baseline,Non-words,Female,21,con,incon,tt1,3550,1,1671
Non-words 11,baseline,Non-words,Female,21,con,incon,tt4,2747,0,1671
Non-words 11,baseline,Non-words,Female,21,con,incon,tt2,1833,0,1671
Non-words 11,baseline,Non-words,Female,21,con,incon,tt3,3067,1,1671
Non-words 11,baseline,Non-words,Female,21,con,incon,tt1,1040,1,1671
Non-words 11,baseline,Non-words,Female,21,con,con,tt1,981,1,1671
Non-words 11,baseline,Non-words,Female,21,con,con,tt3,892,1,1671
Non-words 11,baseline,Non-words,Female,21,con,con,tt2,1105,1,1671
Non-words 11,baseline,Non-words,Female,21,con,con,tt1,1115,1,1671
Non-words 11,baseline,Non-words,Female,21,con,con,tt2,902,1,1671
Non-words 11,baseline,Non-words,Female,21,con,con,tt3,1022,1,1671
Non-words 11,baseline,Non-words,Female,21,con,con,tt1,1003,1,1671
Non-words 11,baseline,Non-words,Female,21,con,con,tt3,945,1,1671
Non-words 11,baseline,Non-words,Female,21,con,con,tt4,1411,1,1671
Non-words 11,baseline,Non-words,Female,21,con,con,tt2,991,1,1671
Non-words 11,baseline,Non-words,Female,21,con,con,tt4,1779,1,1671
Non-words 11,baseline,Non-words,Female,21,con,con,tt3,1576,1,1671
Non-words 11,baseline,Non-words,Female,21,con,con,tt2,1675,1,1671
Non-words 11,baseline,Non-words,Female,21,con,con,tt4,1347,1,1671
Non-words 11,baseline,Non-words,Female,21,con,con,tt1,953,1,1671
Non-words 11,baseline,Non-words,Female,21,con,con,tt3,945,1,1671
Non-words 11,baseline,Non-words,Female,21,con,con,tt1,937,1,1671
Non-words 11,baseline,Non-words,Female,21,con,con,tt4,1250,1,1671
Non-words 11,baseline,Non-words,Female,21,con,con,tt3,2449,1,1671
Non-words 11,baseline,Non-words,Female,21,con,con,tt2,3042,1,1671
Non-words 11,baseline,Non-words,Female,21,con,con,tt1,722,1,1671
Non-words 11,baseline,Non-words,Female,21,con,con,tt4,1815,1,1671
Non-words 11,baseline,Non-words,Female,21,con,con,tt2,1648,1,1671
Non-words 11,baseline,Non-words,Female,21,con,con,tt4,2574,1,1671
Non-words 11,baseline,Non-words,Female,21,con,incon,tt2,3304,1,1671
Non-words 11,baseline,Non-words,Female,21,con,incon,tt1,1008,1,1671
Non-words 11,baseline,Non-words,Female,21,con,incon,tt2,973,1,1671
Non-words 11,baseline,Non-words,Female,21,con,incon,tt1,1031,1,1671
Non-words 11,baseline,Non-words,Female,21,con,incon,tt2,1332,1,1671
Non-words 11,baseline,Non-words,Female,21,con,incon,tt1,895,1,1671
Non-words 11,baseline,Non-words,Female,21,con,incon,tt4,989,1,1671
Non-words 11,baseline,Non-words,Female,21,con,incon,tt3,660,1,1671
Non-words 11,baseline,Non-words,Female,21,con,incon,tt2,3141,1,1671
Non-words 11,baseline,Non-words,Female,21,con,incon,tt4,982,1,1671
Non-words 11,baseline,Non-words,Female,21,con,incon,tt3,1519,1,1671
Non-words 11,baseline,Non-words,Female,21,con,incon,tt1,1592,1,1671
Non-words 11,baseline,Non-words,Female,21,con,incon,tt3,1736,1,1671
Non-words 11,baseline,Non-words,Female,21,con,incon,tt2,1258,1,1671
Non-words 11,baseline,Non-words,Female,21,con,incon,tt1,1062,1,1671
Non-words 11,baseline,Non-words,Female,21,con,incon,tt4,2170,1,1671
Non-words 11,baseline,Non-words,Female,21,con,incon,tt1,983,1,1671
Non-words 11,baseline,Non-words,Female,21,con,incon,tt3,1707,1,1671
Non-words 11,baseline,Non-words,Female,21,con,incon,tt4,5328,1,1671
Non-words 11,baseline,Non-words,Female,21,con,incon,tt3,1099,1,1671
Non-words 11,baseline,Non-words,Female,21,con,incon,tt2,1568,1,1671
Non-words 11,baseline,Non-words,Female,21,con,incon,tt4,1499,1,1671
Non-words 11,baseline,Non-words,Female,21,con,incon,tt3,1137,1,1671
Non-words 11,baseline,Non-words,Female,21,con,incon,tt4,2922,1,1671
Non-words 11,baseline,Non-words,Female,21,con,con,tt4,1652,1,1671
Non-words 11,baseline,Non-words,Female,21,con,con,tt3,1009,1,1671
Non-words 11,baseline,Non-words,Female,21,con,con,tt2,1050,1,1671
Non-words 11,baseline,Non-words,Female,21,con,con,tt1,1075,1,1671
Non-words 11,baseline,Non-words,Female,21,con,con,tt4,1890,0,1671
Non-words 11,baseline,Non-words,Female,21,con,con,tt1,914,1,1671
Non-words 11,baseline,Non-words,Female,21,con,con,tt3,803,1,1671
Non-words 11,baseline,Non-words,Female,21,con,con,tt1,1307,1,1671
Non-words 11,baseline,Non-words,Female,21,con,con,tt2,1641,1,1671
Non-words 11,baseline,Non-words,Female,21,con,con,tt3,2311,1,1671
Non-words 11,baseline,Non-words,Female,21,con,con,tt4,929,1,1671
Non-words 11,baseline,Non-words,Female,21,con,con,tt2,1406,1,1671
Non-words 11,baseline,Non-words,Female,21,con,con,tt1,1024,1,1671
Non-words 11,baseline,Non-words,Female,21,con,con,tt4,2330,1,1671
Non-words 11,baseline,Non-words,Female,21,con,con,tt1,952,1,1671
Non-words 11,baseline,Non-words,Female,21,con,con,tt2,1000,1,1671
Non-words 11,baseline,Non-words,Female,21,con,con,tt3,1602,1,1671
Non-words 11,baseline,Non-words,Female,21,con,con,tt2,3015,1,1671
Non-words 11,baseline,Non-words,Female,21,con,con,tt1,847,1,1671
Non-words 11,baseline,Non-words,Female,21,con,con,tt2,1958,1,1671
Non-words 11,baseline,Non-words,Female,21,con,con,tt4,1173,1,1671
Non-words 11,baseline,Non-words,Female,21,con,con,tt3,2686,1,1671
Non-words 11,baseline,Non-words,Female,21,con,con,tt4,1110,1,1671
Non-words 11,baseline,Non-words,Female,21,con,con,tt3,2125,1,1671
Non-words 11,baseline,Non-words,Female,21,con,incon,tt2,3056,1,1671
Non-words 11,baseline,Non-words,Female,21,con,incon,tt3,3044,0,1671
Non-words 11,baseline,Non-words,Female,21,con,incon,tt1,1219,1,1671
Non-words 11,baseline,Non-words,Female,21,con,incon,tt3,1001,1,1671
Non-words 11,baseline,Non-words,Female,21,con,incon,tt4,1070,1,1671
Non-words 11,baseline,Non-words,Female,21,con,incon,tt3,815,1,1671
Non-words 11,baseline,Non-words,Female,21,con,incon,tt2,1099,1,1671
Non-words 11,baseline,Non-words,Female,21,con,incon,tt1,782,1,1671
Non-words 11,baseline,Non-words,Female,21,con,incon,tt4,1038,1,1671
Non-words 11,baseline,Non-words,Female,21,con,incon,tt2,1878,1,1671
Non-words 11,baseline,Non-words,Female,21,con,incon,tt3,1302,1,1671
Non-words 11,baseline,Non-words,Female,21,con,incon,tt4,1026,1,1671
Non-words 11,baseline,Non-words,Female,21,con,incon,tt2,1639,1,1671
Non-words 11,baseline,Non-words,Female,21,con,incon,tt1,1563,1,1671
Non-words 11,baseline,Non-words,Female,21,con,incon,tt4,6886,1,1671
Non-words 11,baseline,Non-words,Female,21,con,incon,tt2,1021,1,1671
Non-words 11,baseline,Non-words,Female,21,con,incon,tt1,1045,1,1671
Non-words 11,baseline,Non-words,Female,21,con,incon,tt4,2292,1,1671
Non-words 11,baseline,Non-words,Female,21,con,incon,tt1,2037,1,1671
Non-words 11,baseline,Non-words,Female,21,con,incon,tt3,918,1,1671
Non-words 11,baseline,Non-words,Female,21,con,incon,tt4,1242,1,1671
Non-words 11,baseline,Non-words,Female,21,con,incon,tt3,1148,1,1671
Non-words 11,baseline,Non-words,Female,21,con,incon,tt1,1066,1,1671
Non-words 11,baseline,Non-words,Female,21,con,incon,tt2,2648,1,1671
Non-words 13,baseline,Non-words,Female,21,con,con,tt1,1300,1,1251
Non-words 13,baseline,Non-words,Female,21,con,con,tt3,1235,1,1251
Non-words 13,baseline,Non-words,Female,21,con,con,tt4,2317,1,1251
Non-words 13,baseline,Non-words,Female,21,con,con,tt2,2639,1,1251
Non-words 13,baseline,Non-words,Female,21,con,con,tt4,1088,1,1251
Non-words 13,baseline,Non-words,Female,21,con,con,tt1,919,1,1251
Non-words 13,baseline,Non-words,Female,21,con,con,tt4,913,1,1251
Non-words 13,baseline,Non-words,Female,21,con,con,tt1,1061,1,1251
Non-words 13,baseline,Non-words,Female,21,con,con,tt4,916,1,1251
Non-words 13,baseline,Non-words,Female,21,con,con,tt1,1062,1,1251
Non-words 13,baseline,Non-words,Female,21,con,con,tt3,1341,1,1251
Non-words 13,baseline,Non-words,Female,21,con,con,tt4,1187,1,1251
Non-words 13,baseline,Non-words,Female,21,con,con,tt3,1278,1,1251
Non-words 13,baseline,Non-words,Female,21,con,con,tt1,984,1,1251
Non-words 13,baseline,Non-words,Female,21,con,con,tt2,1259,1,1251
Non-words 13,baseline,Non-words,Female,21,con,con,tt1,874,1,1251
Non-words 13,baseline,Non-words,Female,21,con,con,tt2,941,1,1251
Non-words 13,baseline,Non-words,Female,21,con,con,tt3,1151,1,1251
Non-words 13,baseline,Non-words,Female,21,con,con,tt2,1667,1,1251
Non-words 13,baseline,Non-words,Female,21,con,con,tt3,1157,1,1251
Non-words 13,baseline,Non-words,Female,21,con,con,tt2,1159,1,1251
Non-words 13,baseline,Non-words,Female,21,con,con,tt3,956,1,1251
Non-words 13,baseline,Non-words,Female,21,con,con,tt2,2049,1,1251
Non-words 13,baseline,Non-words,Female,21,con,con,tt4,1300,1,1251
Non-words 13,baseline,Non-words,Female,21,con,incon,tt1,1643,1,1251
Non-words 13,baseline,Non-words,Female,21,con,incon,tt2,1132,1,1251
Non-words 13,baseline,Non-words,Female,21,con,incon,tt4,878,1,1251
Non-words 13,baseline,Non-words,Female,21,con,incon,tt3,985,1,1251
Non-words 13,baseline,Non-words,Female,21,con,incon,tt2,3049,1,1251
Non-words 13,baseline,Non-words,Female,21,con,incon,tt1,936,1,1251
Non-words 13,baseline,Non-words,Female,21,con,incon,tt3,3534,1,1251
Non-words 13,baseline,Non-words,Female,21,con,incon,tt1,944,1,1251
Non-words 13,baseline,Non-words,Female,21,con,incon,tt2,1043,1,1251
Non-words 13,baseline,Non-words,Female,21,con,incon,tt3,1142,1,1251
Non-words 13,baseline,Non-words,Female,21,con,incon,tt2,1096,1,1251
Non-words 13,baseline,Non-words,Female,21,con,incon,tt1,990,1,1251
Non-words 13,baseline,Non-words,Female,21,con,incon,tt3,1041,1,1251
Non-words 13,baseline,Non-words,Female,21,con,incon,tt1,1026,1,1251
Non-words 13,baseline,Non-words,Female,21,con,incon,tt4,4554,1,1251
Non-words 13,baseline,Non-words,Female,21,con,incon,tt2,2333,1,1251
Non-words 13,baseline,Non-words,Female,21,con,incon,tt4,1091,1,1251
Non-words 13,baseline,Non-words,Female,21,con,incon,tt3,2749,1,1251
Non-words 13,baseline,Non-words,Female,21,con,incon,tt4,1023,1,1251
Non-words 13,baseline,Non-words,Female,21,con,incon,tt1,1053,1,1251
Non-words 13,baseline,Non-words,Female,21,con,incon,tt3,2064,1,1251
Non-words 13,baseline,Non-words,Female,21,con,incon,tt4,830,1,1251
Non-words 13,baseline,Non-words,Female,21,con,incon,tt2,1110,1,1251
Non-words 13,baseline,Non-words,Female,21,con,incon,tt4,768,1,1251
Non-words 13,baseline,Non-words,Female,21,con,con,tt1,959,1,1251
Non-words 13,baseline,Non-words,Female,21,con,con,tt2,733,1,1251
Non-words 13,baseline,Non-words,Female,21,con,con,tt1,828,1,1251
Non-words 13,baseline,Non-words,Female,21,con,con,tt4,2246,1,1251
Non-words 13,baseline,Non-words,Female,21,con,con,tt1,842,1,1251
Non-words 13,baseline,Non-words,Female,21,con,con,tt4,923,1,1251
Non-words 13,baseline,Non-words,Female,21,con,con,tt3,1006,1,1251
Non-words 13,baseline,Non-words,Female,21,con,con,tt2,1186,1,1251
Non-words 13,baseline,Non-words,Female,21,con,con,tt1,746,1,1251
Non-words 13,baseline,Non-words,Female,21,con,con,tt3,845,1,1251
Non-words 13,baseline,Non-words,Female,21,con,con,tt2,1371,1,1251
Non-words 13,baseline,Non-words,Female,21,con,con,tt1,851,1,1251
Non-words 13,baseline,Non-words,Female,21,con,con,tt4,1185,1,1251
Non-words 13,baseline,Non-words,Female,21,con,con,tt3,1775,1,1251
Non-words 13,baseline,Non-words,Female,21,con,con,tt2,880,1,1251
Non-words 13,baseline,Non-words,Female,21,con,con,tt3,862,1,1251
Non-words 13,baseline,Non-words,Female,21,con,con,tt4,1141,1,1251
Non-words 13,baseline,Non-words,Female,21,con,con,tt2,1530,1,1251
Non-words 13,baseline,Non-words,Female,21,con,con,tt3,1745,1,1251
Non-words 13,baseline,Non-words,Female,21,con,con,tt4,943,1,1251
Non-words 13,baseline,Non-words,Female,21,con,con,tt2,858,1,1251
Non-words 13,baseline,Non-words,Female,21,con,con,tt4,1147,1,1251
Non-words 13,baseline,Non-words,Female,21,con,con,tt3,878,1,1251
Non-words 13,baseline,Non-words,Female,21,con,con,tt1,1314,1,1251
Non-words 13,baseline,Non-words,Female,21,con,incon,tt3,4096,1,1251
Non-words 13,baseline,Non-words,Female,21,con,incon,tt1,935,1,1251
Non-words 13,baseline,Non-words,Female,21,con,incon,tt4,926,1,1251
Non-words 13,baseline,Non-words,Female,21,con,incon,tt2,1082,1,1251
Non-words 13,baseline,Non-words,Female,21,con,incon,tt4,2729,1,1251
Non-words 13,baseline,Non-words,Female,21,con,incon,tt3,856,1,1251
Non-words 13,baseline,Non-words,Female,21,con,incon,tt1,798,1,1251
Non-words 13,baseline,Non-words,Female,21,con,incon,tt3,844,1,1251
Non-words 13,baseline,Non-words,Female,21,con,incon,tt1,1328,1,1251
Non-words 13,baseline,Non-words,Female,21,con,incon,tt4,1235,1,1251
Non-words 13,baseline,Non-words,Female,21,con,incon,tt3,840,1,1251
Non-words 13,baseline,Non-words,Female,21,con,incon,tt2,1146,1,1251
Non-words 13,baseline,Non-words,Female,21,con,incon,tt1,924,1,1251
Non-words 13,baseline,Non-words,Female,21,con,incon,tt2,965,1,1251
Non-words 13,baseline,Non-words,Female,21,con,incon,tt4,937,1,1251
Non-words 13,baseline,Non-words,Female,21,con,incon,tt1,861,1,1251
Non-words 13,baseline,Non-words,Female,21,con,incon,tt2,745,1,1251
Non-words 13,baseline,Non-words,Female,21,con,incon,tt3,969,1,1251
Non-words 13,baseline,Non-words,Female,21,con,incon,tt1,1758,1,1251
Non-words 13,baseline,Non-words,Female,21,con,incon,tt2,1008,1,1251
Non-words 13,baseline,Non-words,Female,21,con,incon,tt4,876,1,1251
Non-words 13,baseline,Non-words,Female,21,con,incon,tt2,969,1,1251
Non-words 13,baseline,Non-words,Female,21,con,incon,tt3,867,1,1251
Non-words 13,baseline,Non-words,Female,21,con,incon,tt4,885,1,1251
Non-words 13,baseline,Non-words,Female,21,con,con,tt1,1507,1,1251
Non-words 13,baseline,Non-words,Female,21,con,con,tt2,797,1,1251
Non-words 13,baseline,Non-words,Female,21,con,con,tt1,807,1,1251
Non-words 13,baseline,Non-words,Female,21,con,con,tt4,1824,1,1251
Non-words 13,baseline,Non-words,Female,21,con,con,tt2,1245,1,1251
Non-words 13,baseline,Non-words,Female,21,con,con,tt1,797,1,1251
Non-words 13,baseline,Non-words,Female,21,con,con,tt4,870,1,1251
Non-words 13,baseline,Non-words,Female,21,con,con,tt1,1053,1,1251
Non-words 13,baseline,Non-words,Female,21,con,con,tt3,892,1,1251
Non-words 13,baseline,Non-words,Female,21,con,con,tt2,2633,1,1251
Non-words 13,baseline,Non-words,Female,21,con,con,tt3,853,1,1251
Non-words 13,baseline,Non-words,Female,21,con,con,tt4,964,1,1251
Non-words 13,baseline,Non-words,Female,21,con,con,tt2,945,1,1251
Non-words 13,baseline,Non-words,Female,21,con,con,tt3,1043,1,1251
Non-words 13,baseline,Non-words,Female,21,con,con,tt1,812,1,1251
Non-words 13,baseline,Non-words,Female,21,con,con,tt2,2086,1,1251
Non-words 13,baseline,Non-words,Female,21,con,con,tt4,3358,1,1251
Non-words 13,baseline,Non-words,Female,21,con,con,tt3,1199,1,1251
Non-words 13,baseline,Non-words,Female,21,con,con,tt4,1176,1,1251
Non-words 13,baseline,Non-words,Female,21,con,con,tt3,1042,1,1251
Non-words 13,baseline,Non-words,Female,21,con,con,tt4,966,1,1251
Non-words 13,baseline,Non-words,Female,21,con,con,tt1,792,1,1251
Non-words 13,baseline,Non-words,Female,21,con,con,tt2,799,1,1251
Non-words 13,baseline,Non-words,Female,21,con,con,tt3,1481,1,1251
Non-words 13,baseline,Non-words,Female,21,con,incon,tt4,1829,1,1251
Non-words 13,baseline,Non-words,Female,21,con,incon,tt3,959,1,1251
Non-words 13,baseline,Non-words,Female,21,con,incon,tt1,1039,1,1251
Non-words 13,baseline,Non-words,Female,21,con,incon,tt2,999,1,1251
Non-words 13,baseline,Non-words,Female,21,con,incon,tt1,858,1,1251
Non-words 13,baseline,Non-words,Female,21,con,incon,tt4,2285,1,1251
Non-words 13,baseline,Non-words,Female,21,con,incon,tt3,1622,1,1251
Non-words 13,baseline,Non-words,Female,21,con,incon,tt1,1029,1,1251
Non-words 13,baseline,Non-words,Female,21,con,incon,tt3,975,1,1251
Non-words 13,baseline,Non-words,Female,21,con,incon,tt4,798,1,1251
Non-words 13,baseline,Non-words,Female,21,con,incon,tt2,1345,1,1251
Non-words 13,baseline,Non-words,Female,21,con,incon,tt1,1310,1,1251
Non-words 13,baseline,Non-words,Female,21,con,incon,tt4,1031,1,1251
Non-words 13,baseline,Non-words,Female,21,con,incon,tt3,761,1,1251
Non-words 13,baseline,Non-words,Female,21,con,incon,tt2,1155,1,1251
Non-words 13,baseline,Non-words,Female,21,con,incon,tt3,1090,1,1251
Non-words 13,baseline,Non-words,Female,21,con,incon,tt1,852,1,1251
Non-words 13,baseline,Non-words,Female,21,con,incon,tt2,1025,1,1251
Non-words 13,baseline,Non-words,Female,21,con,incon,tt1,1005,1,1251
Non-words 13,baseline,Non-words,Female,21,con,incon,tt4,984,1,1251
Non-words 13,baseline,Non-words,Female,21,con,incon,tt2,917,1,1251
Non-words 13,baseline,Non-words,Female,21,con,incon,tt3,1208,1,1251
Non-words 13,baseline,Non-words,Female,21,con,incon,tt4,998,1,1251
Non-words 13,baseline,Non-words,Female,21,con,incon,tt2,1024,1,1251
Non-words 15,baseline,Non-words,Female,49,con,con,tt4,2163,1,1925
Non-words 15,baseline,Non-words,Female,49,con,con,tt1,1132,1,1925
Non-words 15,baseline,Non-words,Female,49,con,con,tt4,2272,1,1925
Non-words 15,baseline,Non-words,Female,49,con,con,tt1,1012,1,1925
Non-words 15,baseline,Non-words,Female,49,con,con,tt4,1598,1,1925
Non-words 15,baseline,Non-words,Female,49,con,con,tt3,1615,1,1925
Non-words 15,baseline,Non-words,Female,49,con,con,tt4,1763,1,1925
Non-words 15,baseline,Non-words,Female,49,con,con,tt2,1443,1,1925
Non-words 15,baseline,Non-words,Female,49,con,con,tt1,1430,1,1925
Non-words 15,baseline,Non-words,Female,49,con,con,tt2,2520,1,1925
Non-words 15,baseline,Non-words,Female,49,con,con,tt1,1190,1,1925
Non-words 15,baseline,Non-words,Female,49,con,con,tt3,1338,1,1925
Non-words 15,baseline,Non-words,Female,49,con,con,tt2,1348,1,1925
Non-words 15,baseline,Non-words,Female,49,con,con,tt3,2574,1,1925
Non-words 15,baseline,Non-words,Female,49,con,con,tt4,1527,1,1925
Non-words 15,baseline,Non-words,Female,49,con,con,tt1,1321,1,1925
Non-words 15,baseline,Non-words,Female,49,con,con,tt2,1017,1,1925
Non-words 15,baseline,Non-words,Female,49,con,con,tt3,2298,1,1925
Non-words 15,baseline,Non-words,Female,49,con,con,tt2,1530,1,1925
Non-words 15,baseline,Non-words,Female,49,con,con,tt3,2364,1,1925
Non-words 15,baseline,Non-words,Female,49,con,con,tt2,1294,1,1925
Non-words 15,baseline,Non-words,Female,49,con,con,tt1,1246,1,1925
Non-words 15,baseline,Non-words,Female,49,con,con,tt3,1809,1,1925
Non-words 15,baseline,Non-words,Female,49,con,con,tt4,5745,0,1925
Non-words 15,baseline,Non-words,Female,49,con,incon,tt3,5674,1,1925
Non-words 15,baseline,Non-words,Female,49,con,incon,tt1,1538,1,1925
Non-words 15,baseline,Non-words,Female,49,con,incon,tt2,1017,1,1925
Non-words 15,baseline,Non-words,Female,49,con,incon,tt3,3574,1,1925
Non-words 15,baseline,Non-words,Female,49,con,incon,tt2,1224,1,1925
Non-words 15,baseline,Non-words,Female,49,con,incon,tt3,3174,1,1925
Non-words 15,baseline,Non-words,Female,49,con,incon,tt2,1213,1,1925
Non-words 15,baseline,Non-words,Female,49,con,incon,tt4,1564,1,1925
Non-words 15,baseline,Non-words,Female,49,con,incon,tt3,4121,1,1925
Non-words 15,baseline,Non-words,Female,49,con,incon,tt1,1395,1,1925
Non-words 15,baseline,Non-words,Female,49,con,incon,tt2,1767,1,1925
Non-words 15,baseline,Non-words,Female,49,con,incon,tt4,2505,1,1925
Non-words 15,baseline,Non-words,Female,49,con,incon,tt1,1538,1,1925
Non-words 15,baseline,Non-words,Female,49,con,incon,tt4,3663,1,1925
Non-words 15,baseline,Non-words,Female,49,con,incon,tt1,1691,1,1925
Non-words 15,baseline,Non-words,Female,49,con,incon,tt4,2272,1,1925
Non-words 15,baseline,Non-words,Female,49,con,incon,tt3,1492,1,1925
Non-words 15,baseline,Non-words,Female,49,con,incon,tt1,1296,1,1925
Non-words 15,baseline,Non-words,Female,49,con,incon,tt2,1272,1,1925
Non-words 15,baseline,Non-words,Female,49,con,incon,tt4,1642,1,1925
Non-words 15,baseline,Non-words,Female,49,con,incon,tt2,1633,1,1925
Non-words 15,baseline,Non-words,Female,49,con,incon,tt1,994,1,1925
Non-words 15,baseline,Non-words,Female,49,con,incon,tt4,2106,1,1925
Non-words 15,baseline,Non-words,Female,49,con,incon,tt3,1871,1,1925
Non-words 15,baseline,Non-words,Female,49,con,con,tt2,4545,1,1925
Non-words 15,baseline,Non-words,Female,49,con,con,tt4,3949,1,1925
Non-words 15,baseline,Non-words,Female,49,con,con,tt1,1075,1,1925
Non-words 15,baseline,Non-words,Female,49,con,con,tt4,2137,1,1925
Non-words 15,baseline,Non-words,Female,49,con,con,tt2,1602,1,1925
Non-words 15,baseline,Non-words,Female,49,con,con,tt3,2564,1,1925
Non-words 15,baseline,Non-words,Female,49,con,con,tt2,2200,1,1925
Non-words 15,baseline,Non-words,Female,49,con,con,tt4,2977,1,1925
Non-words 15,baseline,Non-words,Female,49,con,con,tt2,1243,1,1925
Non-words 15,baseline,Non-words,Female,49,con,con,tt1,1139,1,1925
Non-words 15,baseline,Non-words,Female,49,con,con,tt2,1450,1,1925
Non-words 15,baseline,Non-words,Female,49,con,con,tt1,1209,1,1925
Non-words 15,baseline,Non-words,Female,49,con,con,tt3,2025,1,1925
Non-words 15,baseline,Non-words,Female,49,con,con,tt1,1362,1,1925
Non-words 15,baseline,Non-words,Female,49,con,con,tt4,2167,1,1925
Non-words 15,baseline,Non-words,Female,49,con,con,tt3,2075,1,1925
Non-words 15,baseline,Non-words,Female,49,con,con,tt2,1381,1,1925
Non-words 15,baseline,Non-words,Female,49,con,con,tt1,1372,1,1925
Non-words 15,baseline,Non-words,Female,49,con,con,tt3,1830,1,1925
Non-words 15,baseline,Non-words,Female,49,con,con,tt4,2216,1,1925
Non-words 15,baseline,Non-words,Female,49,con,con,tt1,1175,1,1925
Non-words 15,baseline,Non-words,Female,49,con,con,tt3,1531,1,1925
Non-words 15,baseline,Non-words,Female,49,con,con,tt4,2343,1,1925
Non-words 15,baseline,Non-words,Female,49,con,con,tt3,2517,1,1925
Non-words 15,baseline,Non-words,Female,49,con,incon,tt2,2148,1,1925
Non-words 15,baseline,Non-words,Female,49,con,incon,tt1,1503,1,1925
Non-words 15,baseline,Non-words,Female,49,con,incon,tt4,2150,1,1925
Non-words 15,baseline,Non-words,Female,49,con,incon,tt2,1076,1,1925
Non-words 15,baseline,Non-words,Female,49,con,incon,tt1,1198,1,1925
Non-words 15,baseline,Non-words,Female,49,con,incon,tt3,3265,1,1925
Non-words 15,baseline,Non-words,Female,49,con,incon,tt2,1513,1,1925
Non-words 15,baseline,Non-words,Female,49,con,incon,tt1,1126,1,1925
Non-words 15,baseline,Non-words,Female,49,con,incon,tt3,2126,1,1925
Non-words 15,baseline,Non-words,Female,49,con,incon,tt4,1782,1,1925
Non-words 15,baseline,Non-words,Female,49,con,incon,tt3,3019,1,1925
Non-words 15,baseline,Non-words,Female,49,con,incon,tt4,2918,1,1925
Non-words 15,baseline,Non-words,Female,49,con,incon,tt1,1174,1,1925
Non-words 15,baseline,Non-words,Female,49,con,incon,tt3,1755,1,1925
Non-words 15,baseline,Non-words,Female,49,con,incon,tt2,1286,1,1925
Non-words 15,baseline,Non-words,Female,49,con,incon,tt3,1436,1,1925
Non-words 15,baseline,Non-words,Female,49,con,incon,tt1,1331,1,1925
Non-words 15,baseline,Non-words,Female,49,con,incon,tt4,1674,1,1925
Non-words 15,baseline,Non-words,Female,49,con,incon,tt3,1724,1,1925
Non-words 15,baseline,Non-words,Female,49,con,incon,tt2,1316,1,1925
Non-words 15,baseline,Non-words,Female,49,con,incon,tt1,1309,1,1925
Non-words 15,baseline,Non-words,Female,49,con,incon,tt4,2686,1,1925
Non-words 15,baseline,Non-words,Female,49,con,incon,tt2,1116,1,1925
Non-words 15,baseline,Non-words,Female,49,con,incon,tt4,1656,1,1925
Non-words 15,baseline,Non-words,Female,49,con,con,tt1,1108,1,1925
Non-words 15,baseline,Non-words,Female,49,con,con,tt4,1708,1,1925
Non-words 15,baseline,Non-words,Female,49,con,con,tt2,3254,0,1925
Non-words 15,baseline,Non-words,Female,49,con,con,tt1,1019,1,1925
Non-words 15,baseline,Non-words,Female,49,con,con,tt4,2146,1,1925
Non-words 15,baseline,Non-words,Female,49,con,con,tt1,912,1,1925
Non-words 15,baseline,Non-words,Female,49,con,con,tt3,1539,1,1925
Non-words 15,baseline,Non-words,Female,49,con,con,tt1,1507,1,1925
Non-words 15,baseline,Non-words,Female,49,con,con,tt2,1480,1,1925
Non-words 15,baseline,Non-words,Female,49,con,con,tt3,2011,1,1925
Non-words 15,baseline,Non-words,Female,49,con,con,tt2,2324,1,1925
Non-words 15,baseline,Non-words,Female,49,con,con,tt1,1024,1,1925
Non-words 15,baseline,Non-words,Female,49,con,con,tt4,1982,1,1925
Non-words 15,baseline,Non-words,Female,49,con,con,tt2,3088,1,1925
Non-words 15,baseline,Non-words,Female,49,con,con,tt4,1462,1,1925
Non-words 15,baseline,Non-words,Female,49,con,con,tt2,1614,1,1925
Non-words 15,baseline,Non-words,Female,49,con,con,tt3,2354,1,1925
Non-words 15,baseline,Non-words,Female,49,con,con,tt4,2584,0,1925
Non-words 15,baseline,Non-words,Female,49,con,con,tt3,7028,1,1925
Non-words 15,baseline,Non-words,Female,49,con,con,tt1,1486,1,1925
Non-words 15,baseline,Non-words,Female,49,con,con,tt2,1365,1,1925
Non-words 15,baseline,Non-words,Female,49,con,con,tt3,2877,1,1925
Non-words 15,baseline,Non-words,Female,49,con,con,tt4,2183,1,1925
Non-words 15,baseline,Non-words,Female,49,con,con,tt3,2819,1,1925
Non-words 15,baseline,Non-words,Female,49,con,incon,tt2,1362,1,1925
Non-words 15,baseline,Non-words,Female,49,con,incon,tt3,1100,1,1925
Non-words 15,baseline,Non-words,Female,49,con,incon,tt2,1035,1,1925
Non-words 15,baseline,Non-words,Female,49,con,incon,tt1,1542,1,1925
Non-words 15,baseline,Non-words,Female,49,con,incon,tt3,2441,1,1925
Non-words 15,baseline,Non-words,Female,49,con,incon,tt1,1584,1,1925
Non-words 15,baseline,Non-words,Female,49,con,incon,tt3,1413,1,1925
Non-words 15,baseline,Non-words,Female,49,con,incon,tt4,1322,1,1925
Non-words 15,baseline,Non-words,Female,49,con,incon,tt2,1206,1,1925
Non-words 15,baseline,Non-words,Female,49,con,incon,tt3,1697,1,1925
Non-words 15,baseline,Non-words,Female,49,con,incon,tt1,1417,1,1925
Non-words 15,baseline,Non-words,Female,49,con,incon,tt3,2274,1,1925
Non-words 15,baseline,Non-words,Female,49,con,incon,tt2,1010,1,1925
Non-words 15,baseline,Non-words,Female,49,con,incon,tt1,1433,1,1925
Non-words 15,baseline,Non-words,Female,49,con,incon,tt4,4187,1,1925
Non-words 15,baseline,Non-words,Female,49,con,incon,tt2,1312,1,1925
Non-words 15,baseline,Non-words,Female,49,con,incon,tt4,1979,1,1925
Non-words 15,baseline,Non-words,Female,49,con,incon,tt1,1708,1,1925
Non-words 15,baseline,Non-words,Female,49,con,incon,tt4,2031,1,1925
Non-words 15,baseline,Non-words,Female,49,con,incon,tt1,1699,1,1925
Non-words 15,baseline,Non-words,Female,49,con,incon,tt4,1998,1,1925
Non-words 15,baseline,Non-words,Female,49,con,incon,tt3,1490,1,1925
Non-words 15,baseline,Non-words,Female,49,con,incon,tt4,2590,1,1925
Non-words 15,baseline,Non-words,Female,49,con,incon,tt2,2316,1,1925
Non-words 17,baseline,Non-words,Female,21,con,con,tt3,2109,1,1307
Non-words 17,baseline,Non-words,Female,21,con,con,tt2,3493,1,1307
Non-words 17,baseline,Non-words,Female,21,con,con,tt1,862,1,1307
Non-words 17,baseline,Non-words,Female,21,con,con,tt4,1035,1,1307
Non-words 17,baseline,Non-words,Female,21,con,con,tt2,1994,1,1307
Non-words 17,baseline,Non-words,Female,21,con,con,tt4,1154,1,1307
Non-words 17,baseline,Non-words,Female,21,con,con,tt1,841,1,1307
Non-words 17,baseline,Non-words,Female,21,con,con,tt4,1451,1,1307
Non-words 17,baseline,Non-words,Female,21,con,con,tt2,1072,1,1307
Non-words 17,baseline,Non-words,Female,21,con,con,tt3,2776,1,1307
Non-words 17,baseline,Non-words,Female,21,con,con,tt1,688,1,1307
Non-words 17,baseline,Non-words,Female,21,con,con,tt2,805,1,1307
Non-words 17,baseline,Non-words,Female,21,con,con,tt4,1270,1,1307
Non-words 17,baseline,Non-words,Female,21,con,con,tt1,813,1,1307
Non-words 17,baseline,Non-words,Female,21,con,con,tt4,2872,1,1307
Non-words 17,baseline,Non-words,Female,21,con,con,tt2,1549,1,1307
Non-words 17,baseline,Non-words,Female,21,con,con,tt4,2817,1,1307
Non-words 17,baseline,Non-words,Female,21,con,con,tt3,1037,1,1307
Non-words 17,baseline,Non-words,Female,21,con,con,tt1,752,1,1307
Non-words 17,baseline,Non-words,Female,21,con,con,tt3,1067,1,1307
Non-words 17,baseline,Non-words,Female,21,con,con,tt2,1570,1,1307
Non-words 17,baseline,Non-words,Female,21,con,con,tt3,1547,1,1307
Non-words 17,baseline,Non-words,Female,21,con,con,tt1,917,1,1307
Non-words 17,baseline,Non-words,Female,21,con,con,tt3,1027,1,1307
Non-words 17,baseline,Non-words,Female,21,con,incon,tt1,1188,1,1307
Non-words 17,baseline,Non-words,Female,21,con,incon,tt2,787,1,1307
Non-words 17,baseline,Non-words,Female,21,con,incon,tt4,2464,1,1307
Non-words 17,baseline,Non-words,Female,21,con,incon,tt1,1522,1,1307
Non-words 17,baseline,Non-words,Female,21,con,incon,tt4,1872,1,1307
Non-words 17,baseline,Non-words,Female,21,con,incon,tt2,836,1,1307
Non-words 17,baseline,Non-words,Female,21,con,incon,tt1,914,1,1307
Non-words 17,baseline,Non-words,Female,21,con,incon,tt3,1162,1,1307
Non-words 17,baseline,Non-words,Female,21,con,incon,tt2,1444,1,1307
Non-words 17,baseline,Non-words,Female,21,con,incon,tt4,1004,1,1307
Non-words 17,baseline,Non-words,Female,21,con,incon,tt3,914,1,1307
Non-words 17,baseline,Non-words,Female,21,con,incon,tt1,992,1,1307
Non-words 17,baseline,Non-words,Female,21,con,incon,tt4,1299,1,1307
Non-words 17,baseline,Non-words,Female,21,con,incon,tt3,1611,1,1307
Non-words 17,baseline,Non-words,Female,21,con,incon,tt1,1205,1,1307
Non-words 17,baseline,Non-words,Female,21,con,incon,tt3,2183,1,1307
Non-words 17,baseline,Non-words,Female,21,con,incon,tt2,1111,1,1307
Non-words 17,baseline,Non-words,Female,21,con,incon,tt3,1858,1,1307
Non-words 17,baseline,Non-words,Female,21,con,incon,tt2,1709,1,1307
Non-words 17,baseline,Non-words,Female,21,con,incon,tt4,829,1,1307
Non-words 17,baseline,Non-words,Female,21,con,incon,tt3,894,1,1307
Non-words 17,baseline,Non-words,Female,21,con,incon,tt2,955,1,1307
Non-words 17,baseline,Non-words,Female,21,con,incon,tt1,2417,1,1307
Non-words 17,baseline,Non-words,Female,21,con,incon,tt4,1301,1,1307
Non-words 17,baseline,Non-words,Female,21,con,con,tt3,1795,1,1307
Non-words 17,baseline,Non-words,Female,21,con,con,tt1,675,1,1307
Non-words 17,baseline,Non-words,Female,21,con,con,tt2,724,1,1307
Non-words 17,baseline,Non-words,Female,21,con,con,tt1,921,1,1307
Non-words 17,baseline,Non-words,Female,21,con,con,tt3,1991,1,1307
Non-words 17,baseline,Non-words,Female,21,con,con,tt1,1001,1,1307
Non-words 17,baseline,Non-words,Female,21,con,con,tt3,982,1,1307
Non-words 17,baseline,Non-words,Female,21,con,con,tt1,1176,1,1307
Non-words 17,baseline,Non-words,Female,21,con,con,tt2,1868,1,1307
Non-words 17,baseline,Non-words,Female,21,con,con,tt1,759,1,1307
Non-words 17,baseline,Non-words,Female,21,con,con,tt4,1025,1,1307
Non-words 17,baseline,Non-words,Female,21,con,con,tt2,1098,1,1307
Non-words 17,baseline,Non-words,Female,21,con,con,tt4,1361,1,1307
Non-words 17,baseline,Non-words,Female,21,con,con,tt1,1042,1,1307
Non-words 17,baseline,Non-words,Female,21,con,con,tt4,1188,1,1307
Non-words 17,baseline,Non-words,Female,21,con,con,tt3,889,1,1307
Non-words 17,baseline,Non-words,Female,21,con,con,tt2,958,1,1307
Non-words 17,baseline,Non-words,Female,21,con,con,tt4,930,1,1307
Non-words 17,baseline,Non-words,Female,21,con,con,tt2,936,1,1307
Non-words 17,baseline,Non-words,Female,21,con,con,tt4,1070,1,1307
Non-words 17,baseline,Non-words,Female,21,con,con,tt3,1123,1,1307
Non-words 17,baseline,Non-words,Female,21,con,con,tt2,1591,1,1307
Non-words 17,baseline,Non-words,Female,21,con,con,tt4,1061,1,1307
Non-words 17,baseline,Non-words,Female,21,con,con,tt3,840,1,1307
Non-words 17,baseline,Non-words,Female,21,con,incon,tt3,1282,1,1307
Non-words 17,baseline,Non-words,Female,21,con,incon,tt4,1294,1,1307
Non-words 17,baseline,Non-words,Female,21,con,incon,tt3,860,1,1307
Non-words 17,baseline,Non-words,Female,21,con,incon,tt1,1812,1,1307
Non-words 17,baseline,Non-words,Female,21,con,incon,tt2,729,1,1307
Non-words 17,baseline,Non-words,Female,21,con,incon,tt4,2136,1,1307
Non-words 17,baseline,Non-words,Female,21,con,incon,tt2,900,1,1307
Non-words 17,baseline,Non-words,Female,21,con,incon,tt4,1539,1,1307
Non-words 17,baseline,Non-words,Female,21,con,incon,tt1,1011,1,1307
Non-words 17,baseline,Non-words,Female,21,con,incon,tt3,1081,1,1307
Non-words 17,baseline,Non-words,Female,21,con,incon,tt2,950,1,1307
Non-words 17,baseline,Non-words,Female,21,con,incon,tt3,1153,1,1307
Non-words 17,baseline,Non-words,Female,21,con,incon,tt2,1154,1,1307
Non-words 17,baseline,Non-words,Female,21,con,incon,tt1,1043,1,1307
Non-words 17,baseline,Non-words,Female,21,con,incon,tt2,822,1,1307
Non-words 17,baseline,Non-words,Female,21,con,incon,tt4,2150,1,1307
Non-words 17,baseline,Non-words,Female,21,con,incon,tt3,941,1,1307
Non-words 17,baseline,Non-words,Female,21,con,incon,tt1,936,1,1307
Non-words 17,baseline,Non-words,Female,21,con,incon,tt2,1228,1,1307
Non-words 17,baseline,Non-words,Female,21,con,incon,tt4,2884,1,1307
Non-words 17,baseline,Non-words,Female,21,con,incon,tt1,1051,1,1307
Non-words 17,baseline,Non-words,Female,21,con,incon,tt3,837,1,1307
Non-words 17,baseline,Non-words,Female,21,con,incon,tt4,726,1,1307
Non-words 17,baseline,Non-words,Female,21,con,incon,tt1,1069,1,1307
Non-words 17,baseline,Non-words,Female,21,con,con,tt4,1146,1,1307
Non-words 17,baseline,Non-words,Female,21,con,con,tt1,810,1,1307
Non-words 17,baseline,Non-words,Female,21,con,con,tt2,1137,1,1307
Non-words 17,baseline,Non-words,Female,21,con,con,tt1,947,1,1307
Non-words 17,baseline,Non-words,Female,21,con,con,tt4,1842,1,1307
Non-words 17,baseline,Non-words,Female,21,con,con,tt3,1266,1,1307
Non-words 17,baseline,Non-words,Female,21,con,con,tt1,842,1,1307
Non-words 17,baseline,Non-words,Female,21,con,con,tt3,833,1,1307
Non-words 17,baseline,Non-words,Female,21,con,con,tt4,1194,1,1307
Non-words 17,baseline,Non-words,Female,21,con,con,tt2,928,1,1307
Non-words 17,baseline,Non-words,Female,21,con,con,tt3,1629,1,1307
Non-words 17,baseline,Non-words,Female,21,con,con,tt1,2209,1,1307
Non-words 17,baseline,Non-words,Female,21,con,con,tt2,817,1,1307
Non-words 17,baseline,Non-words,Female,21,con,con,tt1,1052,1,1307
Non-words 17,baseline,Non-words,Female,21,con,con,tt3,871,1,1307
Non-words 17,baseline,Non-words,Female,21,con,con,tt4,952,1,1307
Non-words 17,baseline,Non-words,Female,21,con,con,tt1,1095,1,1307
Non-words 17,baseline,Non-words,Female,21,con,con,tt2,730,1,1307
Non-words 17,baseline,Non-words,Female,21,con,con,tt3,1012,1,1307
Non-words 17,baseline,Non-words,Female,21,con,con,tt2,1179,1,1307
Non-words 17,baseline,Non-words,Female,21,con,con,tt4,871,1,1307
Non-words 17,baseline,Non-words,Female,21,con,con,tt2,747,1,1307
Non-words 17,baseline,Non-words,Female,21,con,con,tt4,945,1,1307
Non-words 17,baseline,Non-words,Female,21,con,con,tt3,727,1,1307
Non-words 17,baseline,Non-words,Female,21,con,incon,tt1,1055,1,1307
Non-words 17,baseline,Non-words,Female,21,con,incon,tt3,976,1,1307
Non-words 17,baseline,Non-words,Female,21,con,incon,tt4,881,1,1307
Non-words 17,baseline,Non-words,Female,21,con,incon,tt2,1068,1,1307
Non-words 17,baseline,Non-words,Female,21,con,incon,tt4,2536,1,1307
Non-words 17,baseline,Non-words,Female,21,con,incon,tt1,2144,0,1307
Non-words 17,baseline,Non-words,Female,21,con,incon,tt4,4365,1,1307
Non-words 17,baseline,Non-words,Female,21,con,incon,tt2,968,1,1307
Non-words 17,baseline,Non-words,Female,21,con,incon,tt1,986,1,1307
Non-words 17,baseline,Non-words,Female,21,con,incon,tt3,4954,1,1307
Non-words 17,baseline,Non-words,Female,21,con,incon,tt4,1058,1,1307
Non-words 17,baseline,Non-words,Female,21,con,incon,tt2,773,1,1307
Non-words 17,baseline,Non-words,Female,21,con,incon,tt3,943,1,1307
Non-words 17,baseline,Non-words,Female,21,con,incon,tt1,830,1,1307
Non-words 17,baseline,Non-words,Female,21,con,incon,tt3,2035,1,1307
Non-words 17,baseline,Non-words,Female,21,con,incon,tt2,1079,1,1307
Non-words 17,baseline,Non-words,Female,21,con,incon,tt4,901,1,1307
Non-words 17,baseline,Non-words,Female,21,con,incon,tt1,977,1,1307
Non-words 17,baseline,Non-words,Female,21,con,incon,tt2,844,1,1307
Non-words 17,baseline,Non-words,Female,21,con,incon,tt4,1396,1,1307
Non-words 17,baseline,Non-words,Female,21,con,incon,tt3,1499,1,1307
Non-words 17,baseline,Non-words,Female,21,con,incon,tt2,1231,1,1307
Non-words 17,baseline,Non-words,Female,21,con,incon,tt3,1263,0,1307
Non-words 17,baseline,Non-words,Female,21,con,incon,tt1,3034,1,1307
Non-words 19,baseline,Non-words,Male,22,con,con,tt3,2386,1,1321
Non-words 19,baseline,Non-words,Male,22,con,con,tt2,1194,1,1321
Non-words 19,baseline,Non-words,Male,22,con,con,tt1,827,1,1321
Non-words 19,baseline,Non-words,Male,22,con,con,tt2,1522,1,1321
Non-words 19,baseline,Non-words,Male,22,con,con,tt4,1259,1,1321
Non-words 19,baseline,Non-words,Male,22,con,con,tt3,1016,1,1321
Non-words 19,baseline,Non-words,Male,22,con,con,tt1,782,1,1321
Non-words 19,baseline,Non-words,Male,22,con,con,tt2,949,1,1321
Non-words 19,baseline,Non-words,Male,22,con,con,tt4,1757,1,1321
Non-words 19,baseline,Non-words,Male,22,con,con,tt1,1157,1,1321
Non-words 19,baseline,Non-words,Male,22,con,con,tt2,1051,1,1321
Non-words 19,baseline,Non-words,Male,22,con,con,tt4,1501,1,1321
Non-words 19,baseline,Non-words,Male,22,con,con,tt3,1322,1,1321
Non-words 19,baseline,Non-words,Male,22,con,con,tt1,666,1,1321
Non-words 19,baseline,Non-words,Male,22,con,con,tt4,1369,1,1321
Non-words 19,baseline,Non-words,Male,22,con,con,tt2,809,1,1321
Non-words 19,baseline,Non-words,Male,22,con,con,tt3,1499,1,1321
Non-words 19,baseline,Non-words,Male,22,con,con,tt1,805,1,1321
Non-words 19,baseline,Non-words,Male,22,con,con,tt4,1410,1,1321
Non-words 19,baseline,Non-words,Male,22,con,con,tt2,1181,1,1321
Non-words 19,baseline,Non-words,Male,22,con,con,tt3,1564,1,1321
Non-words 19,baseline,Non-words,Male,22,con,con,tt1,715,1,1321
Non-words 19,baseline,Non-words,Male,22,con,con,tt3,1249,1,1321
Non-words 19,baseline,Non-words,Male,22,con,con,tt4,1690,1,1321
Non-words 19,baseline,Non-words,Male,22,con,incon,tt3,1852,1,1321
Non-words 19,baseline,Non-words,Male,22,con,incon,tt2,2876,0,1321
Non-words 19,baseline,Non-words,Male,22,con,incon,tt3,2190,1,1321
Non-words 19,baseline,Non-words,Male,22,con,incon,tt4,904,1,1321
Non-words 19,baseline,Non-words,Male,22,con,incon,tt2,1518,1,1321
Non-words 19,baseline,Non-words,Male,22,con,incon,tt1,2018,1,1321
Non-words 19,baseline,Non-words,Male,22,con,incon,tt4,1910,1,1321
Non-words 19,baseline,Non-words,Male,22,con,incon,tt2,1528,1,1321
Non-words 19,baseline,Non-words,Male,22,con,incon,tt4,1327,1,1321
Non-words 19,baseline,Non-words,Male,22,con,incon,tt2,1207,1,1321
Non-words 19,baseline,Non-words,Male,22,con,incon,tt3,1159,1,1321
Non-words 19,baseline,Non-words,Male,22,con,incon,tt4,728,1,1321
Non-words 19,baseline,Non-words,Male,22,con,incon,tt1,1270,1,1321
Non-words 19,baseline,Non-words,Male,22,con,incon,tt2,1311,1,1321
Non-words 19,baseline,Non-words,Male,22,con,incon,tt4,1475,1,1321
Non-words 19,baseline,Non-words,Male,22,con,incon,tt1,1641,0,1321
Non-words 19,baseline,Non-words,Male,22,con,incon,tt3,1121,1,1321
Non-words 19,baseline,Non-words,Male,22,con,incon,tt1,1061,1,1321
Non-words 19,baseline,Non-words,Male,22,con,incon,tt3,1456,1,1321
Non-words 19,baseline,Non-words,Male,22,con,incon,tt4,1078,1,1321
Non-words 19,baseline,Non-words,Male,22,con,incon,tt2,1336,1,1321
Non-words 19,baseline,Non-words,Male,22,con,incon,tt1,1139,1,1321
Non-words 19,baseline,Non-words,Male,22,con,incon,tt3,1318,1,1321
Non-words 19,baseline,Non-words,Male,22,con,incon,tt1,1159,1,1321
Non-words 19,baseline,Non-words,Male,22,con,con,tt2,1118,1,1321
Non-words 19,baseline,Non-words,Male,22,con,con,tt3,1137,1,1321
Non-words 19,baseline,Non-words,Male,22,con,con,tt4,1237,1,1321
Non-words 19,baseline,Non-words,Male,22,con,con,tt3,1026,1,1321
Non-words 19,baseline,Non-words,Male,22,con,con,tt1,945,1,1321
Non-words 19,baseline,Non-words,Male,22,con,con,tt3,1365,1,1321
Non-words 19,baseline,Non-words,Male,22,con,con,tt2,1516,1,1321
Non-words 19,baseline,Non-words,Male,22,con,con,tt4,1685,1,1321
Non-words 19,baseline,Non-words,Male,22,con,con,tt1,1208,1,1321
Non-words 19,baseline,Non-words,Male,22,con,con,tt4,1654,1,1321
Non-words 19,baseline,Non-words,Male,22,con,con,tt3,1156,1,1321
Non-words 19,baseline,Non-words,Male,22,con,con,tt1,694,1,1321
Non-words 19,baseline,Non-words,Male,22,con,con,tt2,827,1,1321
Non-words 19,baseline,Non-words,Male,22,con,con,tt4,1645,1,1321
Non-words 19,baseline,Non-words,Male,22,con,con,tt3,1695,1,1321
Non-words 19,baseline,Non-words,Male,22,con,con,tt4,892,1,1321
Non-words 19,baseline,Non-words,Male,22,con,con,tt1,879,1,1321
Non-words 19,baseline,Non-words,Male,22,con,con,tt4,1495,1,1321
Non-words 19,baseline,Non-words,Male,22,con,con,tt2,803,1,1321
Non-words 19,baseline,Non-words,Male,22,con,con,tt3,1581,1,1321
Non-words 19,baseline,Non-words,Male,22,con,con,tt2,1034,1,1321
Non-words 19,baseline,Non-words,Male,22,con,con,tt1,726,1,1321
Non-words 19,baseline,Non-words,Male,22,con,con,tt2,1286,1,1321
Non-words 19,baseline,Non-words,Male,22,con,con,tt1,990,1,1321
Non-words 19,baseline,Non-words,Male,22,con,incon,tt2,1684,1,1321
Non-words 19,baseline,Non-words,Male,22,con,incon,tt1,2797,0,1321
Non-words 19,baseline,Non-words,Male,22,con,incon,tt4,2127,1,1321
Non-words 19,baseline,Non-words,Male,22,con,incon,tt1,1318,1,1321
Non-words 19,baseline,Non-words,Male,22,con,incon,tt2,1001,1,1321
Non-words 19,baseline,Non-words,Male,22,con,incon,tt3,1460,1,1321
Non-words 19,baseline,Non-words,Male,22,con,incon,tt4,759,1,1321
Non-words 19,baseline,Non-words,Male,22,con,incon,tt1,1872,0,1321
Non-words 19,baseline,Non-words,Male,22,con,incon,tt4,1127,1,1321
Non-words 19,baseline,Non-words,Male,22,con,incon,tt3,750,1,1321
Non-words 19,baseline,Non-words,Male,22,con,incon,tt2,1500,1,1321
Non-words 19,baseline,Non-words,Male,22,con,incon,tt3,1457,1,1321
Non-words 19,baseline,Non-words,Male,22,con,incon,tt4,1345,1,1321
Non-words 19,baseline,Non-words,Male,22,con,incon,tt3,922,1,1321
Non-words 19,baseline,Non-words,Male,22,con,incon,tt2,1625,1,1321
Non-words 19,baseline,Non-words,Male,22,con,incon,tt4,1213,1,1321
Non-words 19,baseline,Non-words,Male,22,con,incon,tt2,1578,1,1321
Non-words 19,baseline,Non-words,Male,22,con,incon,tt1,1569,0,1321
Non-words 19,baseline,Non-words,Male,22,con,incon,tt3,1554,0,1321
Non-words 19,baseline,Non-words,Male,22,con,incon,tt1,1329,1,1321
Non-words 19,baseline,Non-words,Male,22,con,incon,tt2,1455,1,1321
Non-words 19,baseline,Non-words,Male,22,con,incon,tt3,1291,1,1321
Non-words 19,baseline,Non-words,Male,22,con,incon,tt4,2796,1,1321
Non-words 19,baseline,Non-words,Male,22,con,incon,tt1,1207,1,1321
Non-words 19,baseline,Non-words,Male,22,con,con,tt4,2384,1,1321
Non-words 19,baseline,Non-words,Male,22,con,con,tt2,962,1,1321
Non-words 19,baseline,Non-words,Male,22,con,con,tt1,906,1,1321
Non-words 19,baseline,Non-words,Male,22,con,con,tt3,1625,1,1321
Non-words 19,baseline,Non-words,Male,22,con,con,tt2,908,1,1321
Non-words 19,baseline,Non-words,Male,22,con,con,tt3,1527,1,1321
Non-words 19,baseline,Non-words,Male,22,con,con,tt2,1040,1,1321
Non-words 19,baseline,Non-words,Male,22,con,con,tt4,1312,1,1321
Non-words 19,baseline,Non-words,Male,22,con,con,tt2,959,1,1321
Non-words 19,baseline,Non-words,Male,22,con,con,tt1,726,1,1321
Non-words 19,baseline,Non-words,Male,22,con,con,tt4,2289,1,1321
Non-words 19,baseline,Non-words,Male,22,con,con,tt1,1219,1,1321
Non-words 19,baseline,Non-words,Male,22,con,con,tt4,1474,1,1321
Non-words 19,baseline,Non-words,Male,22,con,con,tt3,902,1,1321
Non-words 19,baseline,Non-words,Male,22,con,con,tt1,794,1,1321
Non-words 19,baseline,Non-words,Male,22,con,con,tt4,1413,1,1321
Non-words 19,baseline,Non-words,Male,22,con,con,tt3,942,1,1321
Non-words 19,baseline,Non-words,Male,22,con,con,tt4,1668,1,1321
Non-words 19,baseline,Non-words,Male,22,con,con,tt1,744,1,1321
Non-words 19,baseline,Non-words,Male,22,con,con,tt3,1248,1,1321
Non-words 19,baseline,Non-words,Male,22,con,con,tt2,1026,1,1321
Non-words 19,baseline,Non-words,Male,22,con,con,tt3,1211,1,1321
Non-words 19,baseline,Non-words,Male,22,con,con,tt1,746,1,1321
Non-words 19,baseline,Non-words,Male,22,con,con,tt2,1204,1,1321
Non-words 19,baseline,Non-words,Male,22,con,incon,tt2,1836,1,1321
Non-words 19,baseline,Non-words,Male,22,con,incon,tt4,1111,1,1321
Non-words 19,baseline,Non-words,Male,22,con,incon,tt1,1211,1,1321
Non-words 19,baseline,Non-words,Male,22,con,incon,tt3,909,1,1321
Non-words 19,baseline,Non-words,Male,22,con,incon,tt1,1552,1,1321
Non-words 19,baseline,Non-words,Male,22,con,incon,tt3,933,1,1321
Non-words 19,baseline,Non-words,Male,22,con,incon,tt2,1066,1,1321
Non-words 19,baseline,Non-words,Male,22,con,incon,tt4,1510,1,1321
Non-words 19,baseline,Non-words,Male,22,con,incon,tt1,883,1,1321
Non-words 19,baseline,Non-words,Male,22,con,incon,tt3,801,1,1321
Non-words 19,baseline,Non-words,Male,22,con,incon,tt4,1106,1,1321
Non-words 19,baseline,Non-words,Male,22,con,incon,tt3,933,1,1321
Non-words 19,baseline,Non-words,Male,22,con,incon,tt2,2410,1,1321
Non-words 19,baseline,Non-words,Male,22,con,incon,tt3,747,1,1321
Non-words 19,baseline,Non-words,Male,22,con,incon,tt4,1191,1,1321
Non-words 19,baseline,Non-words,Male,22,con,incon,tt1,1183,1,1321
Non-words 19,baseline,Non-words,Male,22,con,incon,tt4,1798,1,1321
Non-words 19,baseline,Non-words,Male,22,con,incon,tt2,1718,1,1321
Non-words 19,baseline,Non-words,Male,22,con,incon,tt3,1438,1,1321
Non-words 19,baseline,Non-words,Male,22,con,incon,tt2,1520,0,1321
Non-words 19,baseline,Non-words,Male,22,con,incon,tt1,1737,1,1321
Non-words 19,baseline,Non-words,Male,22,con,incon,tt4,1953,1,1321
Non-words 19,baseline,Non-words,Male,22,con,incon,tt1,1016,1,1321
Non-words 19,baseline,Non-words,Male,22,con,incon,tt2,1782,1,1321
Non-words 44,baseline,Non-words,Female,21,incon,incon,tt2,884,1,1158
Non-words 44,baseline,Non-words,Female,21,incon,incon,tt1,1153,1,1158
Non-words 44,baseline,Non-words,Female,21,incon,incon,tt4,786,1,1158
Non-words 44,baseline,Non-words,Female,21,incon,incon,tt1,871,1,1158
Non-words 44,baseline,Non-words,Female,21,incon,incon,tt3,615,1,1158
Non-words 44,baseline,Non-words,Female,21,incon,incon,tt4,910,1,1158
Non-words 44,baseline,Non-words,Female,21,incon,incon,tt2,1284,1,1158
Non-words 44,baseline,Non-words,Female,21,incon,incon,tt1,858,1,1158
Non-words 44,baseline,Non-words,Female,21,incon,incon,tt3,1689,1,1158
Non-words 44,baseline,Non-words,Female,21,incon,incon,tt1,893,1,1158
Non-words 44,baseline,Non-words,Female,21,incon,incon,tt4,1007,1,1158
Non-words 44,baseline,Non-words,Female,21,incon,incon,tt1,1646,1,1158
Non-words 44,baseline,Non-words,Female,21,incon,incon,tt2,733,1,1158
Non-words 44,baseline,Non-words,Female,21,incon,incon,tt1,788,1,1158
Non-words 44,baseline,Non-words,Female,21,incon,incon,tt3,663,1,1158
Non-words 44,baseline,Non-words,Female,21,incon,incon,tt2,1407,1,1158
Non-words 44,baseline,Non-words,Female,21,incon,incon,tt3,1028,1,1158
Non-words 44,baseline,Non-words,Female,21,incon,incon,tt2,1423,1,1158
Non-words 44,baseline,Non-words,Female,21,incon,incon,tt4,1165,1,1158
Non-words 44,baseline,Non-words,Female,21,incon,incon,tt3,909,1,1158
Non-words 44,baseline,Non-words,Female,21,incon,incon,tt2,2107,0,1158
Non-words 44,baseline,Non-words,Female,21,incon,incon,tt4,1005,1,1158
Non-words 44,baseline,Non-words,Female,21,incon,incon,tt3,823,1,1158
Non-words 44,baseline,Non-words,Female,21,incon,incon,tt4,794,1,1158
Non-words 44,baseline,Non-words,Female,21,incon,con,tt2,956,1,1158
Non-words 44,baseline,Non-words,Female,21,incon,con,tt3,787,1,1158
Non-words 44,baseline,Non-words,Female,21,incon,con,tt4,703,1,1158
Non-words 44,baseline,Non-words,Female,21,incon,con,tt3,660,1,1158
Non-words 44,baseline,Non-words,Female,21,incon,con,tt2,970,1,1158
Non-words 44,baseline,Non-words,Female,21,incon,con,tt1,534,1,1158
Non-words 44,baseline,Non-words,Female,21,incon,con,tt4,1426,1,1158
Non-words 44,baseline,Non-words,Female,21,incon,con,tt1,1485,1,1158
Non-words 44,baseline,Non-words,Female,21,incon,con,tt2,665,1,1158
Non-words 44,baseline,Non-words,Female,21,incon,con,tt3,956,1,1158
Non-words 44,baseline,Non-words,Female,21,incon,con,tt4,827,1,1158
Non-words 44,baseline,Non-words,Female,21,incon,con,tt2,992,1,1158
Non-words 44,baseline,Non-words,Female,21,incon,con,tt1,584,1,1158
Non-words 44,baseline,Non-words,Female,21,incon,con,tt3,1545,1,1158
Non-words 44,baseline,Non-words,Female,21,incon,con,tt2,1599,1,1158
Non-words 44,baseline,Non-words,Female,21,incon,con,tt1,890,1,1158
Non-words 44,baseline,Non-words,Female,21,incon,con,tt3,1411,1,1158
Non-words 44,baseline,Non-words,Female,21,incon,con,tt1,2224,1,1158
Non-words 44,baseline,Non-words,Female,21,incon,con,tt3,1242,1,1158
Non-words 44,baseline,Non-words,Female,21,incon,con,tt4,1414,1,1158
Non-words 44,baseline,Non-words,Female,21,incon,con,tt1,1413,1,1158
Non-words 44,baseline,Non-words,Female,21,incon,con,tt4,2596,1,1158
Non-words 44,baseline,Non-words,Female,21,incon,con,tt2,1038,1,1158
Non-words 44,baseline,Non-words,Female,21,incon,con,tt4,942,1,1158
Non-words 44,baseline,Non-words,Female,21,incon,incon,tt3,853,1,1158
Non-words 44,baseline,Non-words,Female,21,incon,incon,tt4,757,1,1158
Non-words 44,baseline,Non-words,Female,21,incon,incon,tt1,843,1,1158
Non-words 44,baseline,Non-words,Female,21,incon,incon,tt4,1552,1,1158
Non-words 44,baseline,Non-words,Female,21,incon,incon,tt1,1611,1,1158
Non-words 44,baseline,Non-words,Female,21,incon,incon,tt4,892,1,1158
Non-words 44,baseline,Non-words,Female,21,incon,incon,tt3,599,1,1158
Non-words 44,baseline,Non-words,Female,21,incon,incon,tt4,707,1,1158
Non-words 44,baseline,Non-words,Female,21,incon,incon,tt3,787,1,1158
Non-words 44,baseline,Non-words,Female,21,incon,incon,tt2,1013,1,1158
Non-words 44,baseline,Non-words,Female,21,incon,incon,tt3,746,1,1158
Non-words 44,baseline,Non-words,Female,21,incon,incon,tt2,1195,1,1158
Non-words 44,baseline,Non-words,Female,21,incon,incon,tt1,1012,1,1158
Non-words 44,baseline,Non-words,Female,21,incon,incon,tt2,1138,1,1158
Non-words 44,baseline,Non-words,Female,21,incon,incon,tt3,3377,1,1158
Non-words 44,baseline,Non-words,Female,21,incon,incon,tt4,898,1,1158
Non-words 44,baseline,Non-words,Female,21,incon,incon,tt1,1170,1,1158
Non-words 44,baseline,Non-words,Female,21,incon,incon,tt4,1016,1,1158
Non-words 44,baseline,Non-words,Female,21,incon,incon,tt3,2151,1,1158
Non-words 44,baseline,Non-words,Female,21,incon,incon,tt2,1859,1,1158
Non-words 44,baseline,Non-words,Female,21,incon,incon,tt1,709,1,1158
Non-words 44,baseline,Non-words,Female,21,incon,incon,tt2,638,1,1158
Non-words 44,baseline,Non-words,Female,21,incon,incon,tt1,774,1,1158
Non-words 44,baseline,Non-words,Female,21,incon,incon,tt2,1069,1,1158
Non-words 44,baseline,Non-words,Female,21,incon,con,tt4,763,1,1158
Non-words 44,baseline,Non-words,Female,21,incon,con,tt3,797,1,1158
Non-words 44,baseline,Non-words,Female,21,incon,con,tt2,1331,1,1158
Non-words 44,baseline,Non-words,Female,21,incon,con,tt4,2646,1,1158
Non-words 44,baseline,Non-words,Female,21,incon,con,tt2,983,1,1158
Non-words 44,baseline,Non-words,Female,21,incon,con,tt1,583,1,1158
Non-words 44,baseline,Non-words,Female,21,incon,con,tt2,1389,1,1158
Non-words 44,baseline,Non-words,Female,21,incon,con,tt3,2888,1,1158
Non-words 44,baseline,Non-words,Female,21,incon,con,tt2,1320,1,1158
Non-words 44,baseline,Non-words,Female,21,incon,con,tt1,566,1,1158
Non-words 44,baseline,Non-words,Female,21,incon,con,tt4,1205,1,1158
Non-words 44,baseline,Non-words,Female,21,incon,con,tt2,790,1,1158
Non-words 44,baseline,Non-words,Female,21,incon,con,tt1,716,1,1158
Non-words 44,baseline,Non-words,Female,21,incon,con,tt3,891,1,1158
Non-words 44,baseline,Non-words,Female,21,incon,con,tt4,1897,1,1158
Non-words 44,baseline,Non-words,Female,21,incon,con,tt1,1340,1,1158
Non-words 44,baseline,Non-words,Female,21,incon,con,tt3,766,1,1158
Non-words 44,baseline,Non-words,Female,21,incon,con,tt4,3565,1,1158
Non-words 44,baseline,Non-words,Female,21,incon,con,tt1,2266,1,1158
Non-words 44,baseline,Non-words,Female,21,incon,con,tt2,2365,1,1158
Non-words 44,baseline,Non-words,Female,21,incon,con,tt4,2149,1,1158
Non-words 44,baseline,Non-words,Female,21,incon,con,tt3,820,1,1158
Non-words 44,baseline,Non-words,Female,21,incon,con,tt1,1425,1,1158
Non-words 44,baseline,Non-words,Female,21,incon,con,tt3,857,1,1158
Non-words 44,baseline,Non-words,Female,21,incon,incon,tt2,995,1,1158
Non-words 44,baseline,Non-words,Female,21,incon,incon,tt3,803,1,1158
Non-words 44,baseline,Non-words,Female,21,incon,incon,tt1,915,1,1158
Non-words 44,baseline,Non-words,Female,21,incon,incon,tt3,636,1,1158
Non-words 44,baseline,Non-words,Female,21,incon,incon,tt4,790,1,1158
Non-words 44,baseline,Non-words,Female,21,incon,incon,tt3,574,1,1158
Non-words 44,baseline,Non-words,Female,21,incon,incon,tt4,743,1,1158
Non-words 44,baseline,Non-words,Female,21,incon,incon,tt2,1164,1,1158
Non-words 44,baseline,Non-words,Female,21,incon,incon,tt4,790,1,1158
Non-words 44,baseline,Non-words,Female,21,incon,incon,tt1,1132,1,1158
Non-words 44,baseline,Non-words,Female,21,incon,incon,tt3,729,1,1158
Non-words 44,baseline,Non-words,Female,21,incon,incon,tt2,1205,1,1158
Non-words 44,baseline,Non-words,Female,21,incon,incon,tt4,1115,1,1158
Non-words 44,baseline,Non-words,Female,21,incon,incon,tt1,1808,1,1158
Non-words 44,baseline,Non-words,Female,21,incon,incon,tt2,1286,0,1158
Non-words 44,baseline,Non-words,Female,21,incon,incon,tt4,1055,1,1158
Non-words 44,baseline,Non-words,Female,21,incon,incon,tt3,631,1,1158
Non-words 44,baseline,Non-words,Female,21,incon,incon,tt2,1280,1,1158
Non-words 44,baseline,Non-words,Female,21,incon,incon,tt1,1044,1,1158
Non-words 44,baseline,Non-words,Female,21,incon,incon,tt3,2677,1,1158
Non-words 44,baseline,Non-words,Female,21,incon,incon,tt1,914,1,1158
Non-words 44,baseline,Non-words,Female,21,incon,incon,tt4,2225,1,1158
Non-words 44,baseline,Non-words,Female,21,incon,incon,tt2,1221,1,1158
Non-words 44,baseline,Non-words,Female,21,incon,incon,tt1,1200,1,1158
Non-words 44,baseline,Non-words,Female,21,incon,con,tt3,930,1,1158
Non-words 44,baseline,Non-words,Female,21,incon,con,tt2,829,1,1158
Non-words 44,baseline,Non-words,Female,21,incon,con,tt4,890,1,1158
Non-words 44,baseline,Non-words,Female,21,incon,con,tt3,718,1,1158
Non-words 44,baseline,Non-words,Female,21,incon,con,tt2,879,1,1158
Non-words 44,baseline,Non-words,Female,21,incon,con,tt4,1846,1,1158
Non-words 44,baseline,Non-words,Female,21,incon,con,tt3,830,1,1158
Non-words 44,baseline,Non-words,Female,21,incon,con,tt2,1972,1,1158
Non-words 44,baseline,Non-words,Female,21,incon,con,tt1,599,1,1158
Non-words 44,baseline,Non-words,Female,21,incon,con,tt2,723,1,1158
Non-words 44,baseline,Non-words,Female,21,incon,con,tt1,614,1,1158
Non-words 44,baseline,Non-words,Female,21,incon,con,tt3,816,1,1158
Non-words 44,baseline,Non-words,Female,21,incon,con,tt1,838,1,1158
Non-words 44,baseline,Non-words,Female,21,incon,con,tt4,1068,1,1158
Non-words 44,baseline,Non-words,Female,21,incon,con,tt3,846,1,1158
Non-words 44,baseline,Non-words,Female,21,incon,con,tt1,1168,1,1158
Non-words 44,baseline,Non-words,Female,21,incon,con,tt2,627,1,1158
Non-words 44,baseline,Non-words,Female,21,incon,con,tt1,1078,1,1158
Non-words 44,baseline,Non-words,Female,21,incon,con,tt3,926,1,1158
Non-words 44,baseline,Non-words,Female,21,incon,con,tt4,1096,1,1158
Non-words 44,baseline,Non-words,Female,21,incon,con,tt1,935,1,1158
Non-words 44,baseline,Non-words,Female,21,incon,con,tt4,928,1,1158
Non-words 44,baseline,Non-words,Female,21,incon,con,tt2,1126,1,1158
Non-words 44,baseline,Non-words,Female,21,incon,con,tt4,2606,0,1158
Non-words 46,baseline,Non-words,Female,21,incon,incon,tt2,781,1,788
Non-words 46,baseline,Non-words,Female,21,incon,incon,tt3,878,1,788
Non-words 46,baseline,Non-words,Female,21,incon,incon,tt2,694,1,788
Non-words 46,baseline,Non-words,Female,21,incon,incon,tt4,689,1,788
Non-words 46,baseline,Non-words,Female,21,incon,incon,tt2,739,1,788
Non-words 46,baseline,Non-words,Female,21,incon,incon,tt4,784,1,788
Non-words 46,baseline,Non-words,Female,21,incon,incon,tt3,572,1,788
Non-words 46,baseline,Non-words,Female,21,incon,incon,tt1,649,1,788
Non-words 46,baseline,Non-words,Female,21,incon,incon,tt2,774,1,788
Non-words 46,baseline,Non-words,Female,21,incon,incon,tt3,689,1,788
Non-words 46,baseline,Non-words,Female,21,incon,incon,tt4,566,1,788
Non-words 46,baseline,Non-words,Female,21,incon,incon,tt1,715,1,788
Non-words 46,baseline,Non-words,Female,21,incon,incon,tt4,1073,0,788
Non-words 46,baseline,Non-words,Female,21,incon,incon,tt1,776,1,788
Non-words 46,baseline,Non-words,Female,21,incon,incon,tt3,697,1,788
Non-words 46,baseline,Non-words,Female,21,incon,incon,tt1,718,1,788
Non-words 46,baseline,Non-words,Female,21,incon,incon,tt2,574,1,788
Non-words 46,baseline,Non-words,Female,21,incon,incon,tt4,1255,1,788
Non-words 46,baseline,Non-words,Female,21,incon,incon,tt2,1038,1,788
Non-words 46,baseline,Non-words,Female,21,incon,incon,tt4,1052,1,788
Non-words 46,baseline,Non-words,Female,21,incon,incon,tt3,559,1,788
Non-words 46,baseline,Non-words,Female,21,incon,incon,tt1,1076,1,788
Non-words 46,baseline,Non-words,Female,21,incon,incon,tt3,1185,1,788
Non-words 46,baseline,Non-words,Female,21,incon,incon,tt1,722,1,788
Non-words 46,baseline,Non-words,Female,21,incon,con,tt3,1251,1,788
Non-words 46,baseline,Non-words,Female,21,incon,con,tt1,813,1,788
Non-words 46,baseline,Non-words,Female,21,incon,con,tt2,600,1,788
Non-words 46,baseline,Non-words,Female,21,incon,con,tt3,670,1,788
Non-words 46,baseline,Non-words,Female,21,incon,con,tt4,585,1,788
Non-words 46,baseline,Non-words,Female,21,incon,con,tt2,835,1,788
Non-words 46,baseline,Non-words,Female,21,incon,con,tt1,553,1,788
Non-words 46,baseline,Non-words,Female,21,incon,con,tt2,718,1,788
Non-words 46,baseline,Non-words,Female,21,incon,con,tt4,793,1,788
Non-words 46,baseline,Non-words,Female,21,incon,con,tt1,887,1,788
Non-words 46,baseline,Non-words,Female,21,incon,con,tt2,583,1,788
Non-words 46,baseline,Non-words,Female,21,incon,con,tt4,1232,0,788
Non-words 46,baseline,Non-words,Female,21,incon,con,tt3,701,1,788
Non-words 46,baseline,Non-words,Female,21,incon,con,tt2,1007,1,788
Non-words 46,baseline,Non-words,Female,21,incon,con,tt1,665,1,788
Non-words 46,baseline,Non-words,Female,21,incon,con,tt4,1178,0,788
Non-words 46,baseline,Non-words,Female,21,incon,con,tt3,739,1,788
Non-words 46,baseline,Non-words,Female,21,incon,con,tt4,698,1,788
Non-words 46,baseline,Non-words,Female,21,incon,con,tt3,726,1,788
Non-words 46,baseline,Non-words,Female,21,incon,con,tt2,896,1,788
Non-words 46,baseline,Non-words,Female,21,incon,con,tt3,843,1,788
Non-words 46,baseline,Non-words,Female,21,incon,con,tt1,974,1,788
Non-words 46,baseline,Non-words,Female,21,incon,con,tt4,725,1,788
Non-words 46,baseline,Non-words,Female,21,incon,con,tt1,25,1,788
Non-words 46,baseline,Non-words,Female,21,incon,incon,tt4,921,1,788
Non-words 46,baseline,Non-words,Female,21,incon,incon,tt1,866,0,788
Non-words 46,baseline,Non-words,Female,21,incon,incon,tt3,691,1,788
Non-words 46,baseline,Non-words,Female,21,incon,incon,tt1,666,1,788
Non-words 46,baseline,Non-words,Female,21,incon,incon,tt4,860,1,788
Non-words 46,baseline,Non-words,Female,21,incon,incon,tt2,798,1,788
Non-words 46,baseline,Non-words,Female,21,incon,incon,tt3,693,1,788
Non-words 46,baseline,Non-words,Female,21,incon,incon,tt2,876,1,788
Non-words 46,baseline,Non-words,Female,21,incon,incon,tt1,781,1,788
Non-words 46,baseline,Non-words,Female,21,incon,incon,tt3,743,1,788
Non-words 46,baseline,Non-words,Female,21,incon,incon,tt4,762,1,788
Non-words 46,baseline,Non-words,Female,21,incon,incon,tt3,725,1,788
Non-words 46,baseline,Non-words,Female,21,incon,incon,tt1,713,1,788
Non-words 46,baseline,Non-words,Female,21,incon,incon,tt2,1022,1,788
Non-words 46,baseline,Non-words,Female,21,incon,incon,tt1,713,1,788
Non-words 46,baseline,Non-words,Female,21,incon,incon,tt3,773,1,788
Non-words 46,baseline,Non-words,Female,21,incon,incon,tt2,780,1,788
Non-words 46,baseline,Non-words,Female,21,incon,incon,tt3,814,1,788
Non-words 46,baseline,Non-words,Female,21,incon,incon,tt4,688,1,788
Non-words 46,baseline,Non-words,Female,21,incon,incon,tt2,1325,0,788
Non-words 46,baseline,Non-words,Female,21,incon,incon,tt4,1001,1,788
Non-words 46,baseline,Non-words,Female,21,incon,incon,tt1,768,1,788
Non-words 46,baseline,Non-words,Female,21,incon,incon,tt4,841,1,788
Non-words 46,baseline,Non-words,Female,21,incon,incon,tt2,748,1,788
Non-words 46,baseline,Non-words,Female,21,incon,con,tt4,1163,1,788
Non-words 46,baseline,Non-words,Female,21,incon,con,tt1,941,1,788
Non-words 46,baseline,Non-words,Female,21,incon,con,tt3,749,1,788
Non-words 46,baseline,Non-words,Female,21,incon,con,tt4,680,1,788
Non-words 46,baseline,Non-words,Female,21,incon,con,tt3,883,1,788
Non-words 46,baseline,Non-words,Female,21,incon,con,tt2,670,1,788
Non-words 46,baseline,Non-words,Female,21,incon,con,tt1,525,1,788
Non-words 46,baseline,Non-words,Female,21,incon,con,tt3,729,1,788
Non-words 46,baseline,Non-words,Female,21,incon,con,tt1,635,1,788
Non-words 46,baseline,Non-words,Female,21,incon,con,tt4,743,1,788
Non-words 46,baseline,Non-words,Female,21,incon,con,tt1,860,1,788
Non-words 46,baseline,Non-words,Female,21,incon,con,tt2,676,1,788
Non-words 46,baseline,Non-words,Female,21,incon,con,tt3,1087,1,788
Non-words 46,baseline,Non-words,Female,21,incon,con,tt2,811,1,788
Non-words 46,baseline,Non-words,Female,21,incon,con,tt3,792,1,788
Non-words 46,baseline,Non-words,Female,21,incon,con,tt4,568,1,788
Non-words 46,baseline,Non-words,Female,21,incon,con,tt1,615,1,788
Non-words 46,baseline,Non-words,Female,21,incon,con,tt2,632,1,788
Non-words 46,baseline,Non-words,Female,21,incon,con,tt4,668,1,788
Non-words 46,baseline,Non-words,Female,21,incon,con,tt2,855,1,788
Non-words 46,baseline,Non-words,Female,21,incon,con,tt3,1167,1,788
Non-words 46,baseline,Non-words,Female,21,incon,con,tt4,598,1,788
Non-words 46,baseline,Non-words,Female,21,incon,con,tt1,883,1,788
Non-words 46,baseline,Non-words,Female,21,incon,con,tt2,720,1,788
Non-words 46,baseline,Non-words,Female,21,incon,incon,tt1,816,1,788
Non-words 46,baseline,Non-words,Female,21,incon,incon,tt2,789,1,788
Non-words 46,baseline,Non-words,Female,21,incon,incon,tt4,808,1,788
Non-words 46,baseline,Non-words,Female,21,incon,incon,tt3,455,1,788
Non-words 46,baseline,Non-words,Female,21,incon,incon,tt2,689,1,788
Non-words 46,baseline,Non-words,Female,21,incon,incon,tt4,870,1,788
Non-words 46,baseline,Non-words,Female,21,incon,incon,tt1,866,0,788
Non-words 46,baseline,Non-words,Female,21,incon,incon,tt2,578,1,788
Non-words 46,baseline,Non-words,Female,21,incon,incon,tt3,605,1,788
Non-words 46,baseline,Non-words,Female,21,incon,incon,tt4,710,1,788
Non-words 46,baseline,Non-words,Female,21,incon,incon,tt2,874,1,788
Non-words 46,baseline,Non-words,Female,21,incon,incon,tt1,606,1,788
Non-words 46,baseline,Non-words,Female,21,incon,incon,tt4,766,1,788
Non-words 46,baseline,Non-words,Female,21,incon,incon,tt2,724,1,788
Non-words 46,baseline,Non-words,Female,21,incon,incon,tt3,601,1,788
Non-words 46,baseline,Non-words,Female,21,incon,incon,tt4,620,1,788
Non-words 46,baseline,Non-words,Female,21,incon,incon,tt1,780,1,788
Non-words 46,baseline,Non-words,Female,21,incon,incon,tt3,1171,1,788
Non-words 46,baseline,Non-words,Female,21,incon,incon,tt1,825,1,788
Non-words 46,baseline,Non-words,Female,21,incon,incon,tt4,779,1,788
Non-words 46,baseline,Non-words,Female,21,incon,incon,tt2,689,1,788
Non-words 46,baseline,Non-words,Female,21,incon,incon,tt3,1302,1,788
Non-words 46,baseline,Non-words,Female,21,incon,incon,tt1,686,1,788
Non-words 46,baseline,Non-words,Female,21,incon,incon,tt3,762,1,788
Non-words 46,baseline,Non-words,Female,21,incon,con,tt2,847,1,788
Non-words 46,baseline,Non-words,Female,21,incon,con,tt3,736,1,788
Non-words 46,baseline,Non-words,Female,21,incon,con,tt1,634,1,788
Non-words 46,baseline,Non-words,Female,21,incon,con,tt2,600,1,788
Non-words 46,baseline,Non-words,Female,21,incon,con,tt4,689,1,788
Non-words 46,baseline,Non-words,Female,21,incon,con,tt1,861,1,788
Non-words 46,baseline,Non-words,Female,21,incon,con,tt2,599,1,788
Non-words 46,baseline,Non-words,Female,21,incon,con,tt1,998,1,788
Non-words 46,baseline,Non-words,Female,21,incon,con,tt3,617,1,788
Non-words 46,baseline,Non-words,Female,21,incon,con,tt1,770,1,788
Non-words 46,baseline,Non-words,Female,21,incon,con,tt3,635,1,788
Non-words 46,baseline,Non-words,Female,21,incon,con,tt2,692,1,788
Non-words 46,baseline,Non-words,Female,21,incon,con,tt3,856,0,788
Non-words 46,baseline,Non-words,Female,21,incon,con,tt4,621,1,788
Non-words 46,baseline,Non-words,Female,21,incon,con,tt2,832,1,788
Non-words 46,baseline,Non-words,Female,21,incon,con,tt3,1011,0,788
Non-words 46,baseline,Non-words,Female,21,incon,con,tt1,1071,1,788
Non-words 46,baseline,Non-words,Female,21,incon,con,tt4,621,1,788
Non-words 46,baseline,Non-words,Female,21,incon,con,tt1,816,1,788
Non-words 46,baseline,Non-words,Female,21,incon,con,tt4,1076,0,788
Non-words 46,baseline,Non-words,Female,21,incon,con,tt2,1320,1,788
Non-words 46,baseline,Non-words,Female,21,incon,con,tt4,683,1,788
Non-words 46,baseline,Non-words,Female,21,incon,con,tt3,550,1,788
Non-words 46,baseline,Non-words,Female,21,incon,con,tt4,826,1,788
Non-words 48,baseline,Non-words,Female,21,incon,incon,tt1,1779,1,1772
Non-words 48,baseline,Non-words,Female,21,incon,incon,tt3,4665,0,1772
Non-words 48,baseline,Non-words,Female,21,incon,incon,tt1,1614,1,1772
Non-words 48,baseline,Non-words,Female,21,incon,incon,tt3,2518,1,1772
Non-words 48,baseline,Non-words,Female,21,incon,incon,tt2,1589,1,1772
Non-words 48,baseline,Non-words,Female,21,incon,incon,tt1,2985,1,1772
Non-words 48,baseline,Non-words,Female,21,incon,incon,tt2,1140,1,1772
Non-words 48,baseline,Non-words,Female,21,incon,incon,tt4,2369,0,1772
Non-words 48,baseline,Non-words,Female,21,incon,incon,tt3,1777,1,1772
Non-words 48,baseline,Non-words,Female,21,incon,incon,tt4,2588,1,1772
Non-words 48,baseline,Non-words,Female,21,incon,incon,tt2,1218,1,1772
Non-words 48,baseline,Non-words,Female,21,incon,incon,tt3,1463,1,1772
Non-words 48,baseline,Non-words,Female,21,incon,incon,tt2,1096,1,1772
Non-words 48,baseline,Non-words,Female,21,incon,incon,tt3,2515,0,1772
Non-words 48,baseline,Non-words,Female,21,incon,incon,tt1,1547,0,1772
Non-words 48,baseline,Non-words,Female,21,incon,incon,tt4,4883,1,1772
Non-words 48,baseline,Non-words,Female,21,incon,incon,tt3,822,1,1772
Non-words 48,baseline,Non-words,Female,21,incon,incon,tt4,1330,1,1772
Non-words 48,baseline,Non-words,Female,21,incon,incon,tt2,4779,1,1772
Non-words 48,baseline,Non-words,Female,21,incon,incon,tt4,1308,1,1772
Non-words 48,baseline,Non-words,Female,21,incon,incon,tt1,2947,1,1772
Non-words 48,baseline,Non-words,Female,21,incon,incon,tt2,852,1,1772
Non-words 48,baseline,Non-words,Female,21,incon,incon,tt4,2355,1,1772
Non-words 48,baseline,Non-words,Female,21,incon,incon,tt1,1246,1,1772
Non-words 48,baseline,Non-words,Female,21,incon,con,tt2,1188,1,1772
Non-words 48,baseline,Non-words,Female,21,incon,con,tt3,1612,0,1772
Non-words 48,baseline,Non-words,Female,21,incon,con,tt4,1995,1,1772
Non-words 48,baseline,Non-words,Female,21,incon,con,tt2,1389,1,1772
Non-words 48,baseline,Non-words,Female,21,incon,con,tt3,3893,1,1772
Non-words 48,baseline,Non-words,Female,21,incon,con,tt4,927,1,1772
Non-words 48,baseline,Non-words,Female,21,incon,con,tt3,1537,1,1772
Non-words 48,baseline,Non-words,Female,21,incon,con,tt4,1869,0,1772
Non-words 48,baseline,Non-words,Female,21,incon,con,tt3,2153,1,1772
Non-words 48,baseline,Non-words,Female,21,incon,con,tt1,839,1,1772
Non-words 48,baseline,Non-words,Female,21,incon,con,tt2,890,1,1772
Non-words 48,baseline,Non-words,Female,21,incon,con,tt1,920,1,1772
Non-words 48,baseline,Non-words,Female,21,incon,con,tt3,3887,1,1772
Non-words 48,baseline,Non-words,Female,21,incon,con,tt1,1108,1,1772
Non-words 48,baseline,Non-words,Female,21,incon,con,tt3,3426,1,1772
Non-words 48,baseline,Non-words,Female,21,incon,con,tt2,5008,1,1772
Non-words 48,baseline,Non-words,Female,21,incon,con,tt4,1397,1,1772
Non-words 48,baseline,Non-words,Female,21,incon,con,tt1,865,1,1772
Non-words 48,baseline,Non-words,Female,21,incon,con,tt2,1031,1,1772
Non-words 48,baseline,Non-words,Female,21,incon,con,tt4,2044,0,1772
Non-words 48,baseline,Non-words,Female,21,incon,con,tt1,1120,1,1772
Non-words 48,baseline,Non-words,Female,21,incon,con,tt2,901,1,1772
Non-words 48,baseline,Non-words,Female,21,incon,con,tt1,795,1,1772
Non-words 48,baseline,Non-words,Female,21,incon,con,tt4,1675,1,1772
Non-words 48,baseline,Non-words,Female,21,incon,incon,tt1,1203,1,1772
Non-words 48,baseline,Non-words,Female,21,incon,incon,tt4,1447,0,1772
Non-words 48,baseline,Non-words,Female,21,incon,incon,tt2,1449,1,1772
Non-words 48,baseline,Non-words,Female,21,incon,incon,tt4,2170,0,1772
Non-words 48,baseline,Non-words,Female,21,incon,incon,tt1,2124,1,1772
Non-words 48,baseline,Non-words,Female,21,incon,incon,tt4,3799,0,1772
Non-words 48,baseline,Non-words,Female,21,incon,incon,tt2,1190,1,1772
Non-words 48,baseline,Non-words,Female,21,incon,incon,tt3,1110,1,1772
Non-words 48,baseline,Non-words,Female,21,incon,incon,tt4,1319,1,1772
Non-words 48,baseline,Non-words,Female,21,incon,incon,tt2,937,1,1772
Non-words 48,baseline,Non-words,Female,21,incon,incon,tt3,2997,1,1772
Non-words 48,baseline,Non-words,Female,21,incon,incon,tt2,1036,1,1772
Non-words 48,baseline,Non-words,Female,21,incon,incon,tt3,2951,1,1772
